images,condition,imgB,imgA,trials.thisRepN,trials.thisTrialN,trials.thisN,trials.thisIndex,numLoop.thisRepN,numLoop.thisTrialN,numLoop.thisN,numLoop.thisIndex,response.keys,response.rt,rating.response,rating.rt,key_resp_2.keys,key_resp_2.rt,numResp.keys,numResp.corr,numResp.Alocation,numResp.rt,date,frameRate,expName,session,participant,
,,,,,,,,,,,,space,64.6297638416,,,,,,,,,2016_Oct_10_1504,59.8748344068,Gestalt_exp1,001,14596,
images/i29.bmp,scrambled,,,0,0,0,58,,,,,,,3,6.235,,,,,,,2016_Oct_10_1504,59.8748344068,Gestalt_exp1,001,14596,
images/k25.bmp,gestalt,,,0,1,1,24,,,,,,,3,2.851,,,,,,,2016_Oct_10_1504,59.8748344068,Gestalt_exp1,001,14596,
images/INVk14.bmp,inverted,,,0,2,2,68,,,,,,,4,3.219,,,,,,,2016_Oct_10_1504,59.8748344068,Gestalt_exp1,001,14596,
images/k05.bmp,gestalt,,,0,3,3,4,,,,,,,3,2.818,,,,,,,2016_Oct_10_1504,59.8748344068,Gestalt_exp1,001,14596,
images/INVk12.bmp,inverted,,,0,4,4,67,,,,,,,3,3.136,,,,,,,2016_Oct_10_1504,59.8748344068,Gestalt_exp1,001,14596,
images/INVk30.bmp,inverted,,,0,5,5,82,,,,,,,5,2.135,,,,,,,2016_Oct_10_1504,59.8748344068,Gestalt_exp1,001,14596,
images/INVk10.bmp,inverted,,,0,6,6,66,,,,,,,3,3.251,,,,,,,2016_Oct_10_1504,59.8748344068,Gestalt_exp1,001,14596,
images/k10.bmp,gestalt,,,0,7,7,9,,,,,,,4,2.568,,,,,,,2016_Oct_10_1504,59.8748344068,Gestalt_exp1,001,14596,
images/i13.bmp,scrambled,,,0,8,8,42,,,,,,,6,3.568,,,,,,,2016_Oct_10_1504,59.8748344068,Gestalt_exp1,001,14596,
images/k04.bmp,gestalt,,,0,9,9,3,,,,,,,4,2.102,,,,,,,2016_Oct_10_1504,59.8748344068,Gestalt_exp1,001,14596,
images/k28.bmp,gestalt,,,0,10,10,27,,,,,,,5,1.869,,,,,,,2016_Oct_10_1504,59.8748344068,Gestalt_exp1,001,14596,
images/k29.bmp,gestalt,,,0,11,11,28,,,,,,,4,1.952,,,,,,,2016_Oct_10_1504,59.8748344068,Gestalt_exp1,001,14596,
images/i21.bmp,scrambled,,,0,12,12,50,,,,,,,5,2.669,,,,,,,2016_Oct_10_1504,59.8748344068,Gestalt_exp1,001,14596,
images/INVk25.bmp,inverted,,,0,13,13,77,,,,,,,4,2.085,,,,,,,2016_Oct_10_1504,59.8748344068,Gestalt_exp1,001,14596,
images/k03.bmp,gestalt,,,0,14,14,2,,,,,,,5,1.919,,,,,,,2016_Oct_10_1504,59.8748344068,Gestalt_exp1,001,14596,
images/i14.bmp,scrambled,,,0,15,15,43,,,,,,,6,2.368,,,,,,,2016_Oct_10_1504,59.8748344068,Gestalt_exp1,001,14596,
images/k18.bmp,gestalt,,,0,16,16,17,,,,,,,5,2.336,,,,,,,2016_Oct_10_1504,59.8748344068,Gestalt_exp1,001,14596,
images/INVk27.bmp,inverted,,,0,17,17,79,,,,,,,5,1.969,,,,,,,2016_Oct_10_1504,59.8748344068,Gestalt_exp1,001,14596,
images/k15.bmp,gestalt,,,0,18,18,14,,,,,,,5,1.585,,,,,,,2016_Oct_10_1504,59.8748344068,Gestalt_exp1,001,14596,
images/i02.bmp,scrambled,,,0,19,19,31,,,,,,,4,3.253,,,,,,,2016_Oct_10_1504,59.8748344068,Gestalt_exp1,001,14596,
images/INVk21.bmp,inverted,,,0,20,20,73,,,,,,,4,2.77,,,,,,,2016_Oct_10_1504,59.8748344068,Gestalt_exp1,001,14596,
images/i30.bmp,scrambled,,,0,21,21,59,,,,,,,5,1.67,,,,,,,2016_Oct_10_1504,59.8748344068,Gestalt_exp1,001,14596,
images/i08.bmp,scrambled,,,0,22,22,37,,,,,,,5,1.919,,,,,,,2016_Oct_10_1504,59.8748344068,Gestalt_exp1,001,14596,
images/i23.bmp,scrambled,,,0,23,23,52,,,,,,,4,2.036,,,,,,,2016_Oct_10_1504,59.8748344068,Gestalt_exp1,001,14596,
images/i04.bmp,scrambled,,,0,24,24,33,,,,,,,4,1.719,,,,,,,2016_Oct_10_1504,59.8748344068,Gestalt_exp1,001,14596,
images/i11.bmp,scrambled,,,0,25,25,40,,,,,,,4,1.869,,,,,,,2016_Oct_10_1504,59.8748344068,Gestalt_exp1,001,14596,
images/INVk18.bmp,inverted,,,0,26,26,71,,,,,,,5,1.435,,,,,,,2016_Oct_10_1504,59.8748344068,Gestalt_exp1,001,14596,
images/i28.bmp,scrambled,,,0,27,27,57,,,,,,,5,1.702,,,,,,,2016_Oct_10_1504,59.8748344068,Gestalt_exp1,001,14596,
images/i10.bmp,scrambled,,,0,28,28,39,,,,,,,4,1.768,,,,,,,2016_Oct_10_1504,59.8748344068,Gestalt_exp1,001,14596,
images/i07.bmp,scrambled,,,0,29,29,36,,,,,,,6,2.02,,,,,,,2016_Oct_10_1504,59.8748344068,Gestalt_exp1,001,14596,
images/i25.bmp,scrambled,,,0,30,30,54,,,,,,,5,1.336,,,,,,,2016_Oct_10_1504,59.8748344068,Gestalt_exp1,001,14596,
images/INVk19.bmp,inverted,,,0,31,31,72,,,,,,,4,1.652,,,,,,,2016_Oct_10_1504,59.8748344068,Gestalt_exp1,001,14596,
images/INVk03.bmp,inverted,,,0,32,32,61,,,,,,,3,1.92,,,,,,,2016_Oct_10_1504,59.8748344068,Gestalt_exp1,001,14596,
images/INVk01.bmp,inverted,,,0,33,33,60,,,,,,,4,1.902,,,,,,,2016_Oct_10_1504,59.8748344068,Gestalt_exp1,001,14596,
images/k26.bmp,gestalt,,,0,34,34,25,,,,,,,6,4.22,,,,,,,2016_Oct_10_1504,59.8748344068,Gestalt_exp1,001,14596,
images/INVk24.bmp,inverted,,,0,35,35,76,,,,,,,3,2.386,,,,,,,2016_Oct_10_1504,59.8748344068,Gestalt_exp1,001,14596,
images/INVk23.bmp,inverted,,,0,36,36,75,,,,,,,5,2.202,,,,,,,2016_Oct_10_1504,59.8748344068,Gestalt_exp1,001,14596,
images/INVk16.bmp,inverted,,,0,37,37,70,,,,,,,4,1.702,,,,,,,2016_Oct_10_1504,59.8748344068,Gestalt_exp1,001,14596,
images/k02.bmp,gestalt,,,0,38,38,1,,,,,,,3,2.169,,,,,,,2016_Oct_10_1504,59.8748344068,Gestalt_exp1,001,14596,
images/INVk28.bmp,inverted,,,0,39,39,80,,,,,,,4,1.918,,,,,,,2016_Oct_10_1504,59.8748344068,Gestalt_exp1,001,14596,
images/k13.bmp,gestalt,,,0,40,40,12,,,,,,,5,2.419,,,,,,,2016_Oct_10_1504,59.8748344068,Gestalt_exp1,001,14596,
images/INVk05.bmp,inverted,,,0,41,41,63,,,,,,,4,1.368,,,,,,,2016_Oct_10_1504,59.8748344068,Gestalt_exp1,001,14596,
images/k20.bmp,gestalt,,,0,42,42,19,,,,,,,3,1.918,,,,,,,2016_Oct_10_1504,59.8748344068,Gestalt_exp1,001,14596,
images/k01.bmp,gestalt,,,0,43,43,0,,,,,,,3,1.536,,,,,,,2016_Oct_10_1504,59.8748344068,Gestalt_exp1,001,14596,
images/k17.bmp,gestalt,,,0,44,44,16,,,,,,,2,1.535,,,,,,,2016_Oct_10_1504,59.8748344068,Gestalt_exp1,001,14596,
images/k27.bmp,gestalt,,,0,45,45,26,,,,,,,4,1.668,,,,,,,2016_Oct_10_1504,59.8748344068,Gestalt_exp1,001,14596,
images/i18.bmp,scrambled,,,0,46,46,47,,,,,,,4,1.668,,,,,,,2016_Oct_10_1504,59.8748344068,Gestalt_exp1,001,14596,
images/i27.bmp,scrambled,,,0,47,47,56,,,,,,,5,2.719,,,,,,,2016_Oct_10_1504,59.8748344068,Gestalt_exp1,001,14596,
images/k09.bmp,gestalt,,,0,48,48,8,,,,,,,3,2.285,,,,,,,2016_Oct_10_1504,59.8748344068,Gestalt_exp1,001,14596,
images/i09.bmp,scrambled,,,0,49,49,38,,,,,,,5,1.402,,,,,,,2016_Oct_10_1504,59.8748344068,Gestalt_exp1,001,14596,
images/i24.bmp,scrambled,,,0,50,50,53,,,,,,,3,2.002,,,,,,,2016_Oct_10_1504,59.8748344068,Gestalt_exp1,001,14596,
images/k06.bmp,gestalt,,,0,51,51,5,,,,,,,5,1.519,,,,,,,2016_Oct_10_1504,59.8748344068,Gestalt_exp1,001,14596,
images/i12.bmp,scrambled,,,0,52,52,41,,,,,,,4,1.752,,,,,,,2016_Oct_10_1504,59.8748344068,Gestalt_exp1,001,14596,
images/INVk09.bmp,inverted,,,0,53,53,65,,,,,,,3,2.036,,,,,,,2016_Oct_10_1504,59.8748344068,Gestalt_exp1,001,14596,
images/INVk26.bmp,inverted,,,0,54,54,78,,,,,,,3,1.487,,,,,,,2016_Oct_10_1504,59.8748344068,Gestalt_exp1,001,14596,
images/i16.bmp,scrambled,,,0,55,55,45,,,,,,,5,2.419,,,,,,,2016_Oct_10_1504,59.8748344068,Gestalt_exp1,001,14596,
images/i01.bmp,scrambled,,,0,56,56,30,,,,,,,5,1.535,,,,,,,2016_Oct_10_1504,59.8748344068,Gestalt_exp1,001,14596,
images/INVk06.bmp,inverted,,,0,57,57,64,,,,,,,4,1.719,,,,,,,2016_Oct_10_1504,59.8748344068,Gestalt_exp1,001,14596,
images/k24.bmp,gestalt,,,0,58,58,23,,,,,,,3,1.769,,,,,,,2016_Oct_10_1504,59.8748344068,Gestalt_exp1,001,14596,
images/k22.bmp,gestalt,,,0,59,59,21,,,,,,,6,1.635,,,,,,,2016_Oct_10_1504,59.8748344068,Gestalt_exp1,001,14596,
images/INVk22.bmp,inverted,,,0,60,60,74,,,,,,,6,1.336,,,,,,,2016_Oct_10_1504,59.8748344068,Gestalt_exp1,001,14596,
images/i15.bmp,scrambled,,,0,61,61,44,,,,,,,6,1.502,,,,,,,2016_Oct_10_1504,59.8748344068,Gestalt_exp1,001,14596,
images/k16.bmp,gestalt,,,0,62,62,15,,,,,,,5,1.636,,,,,,,2016_Oct_10_1504,59.8748344068,Gestalt_exp1,001,14596,
images/k07.bmp,gestalt,,,0,63,63,6,,,,,,,5,1.885,,,,,,,2016_Oct_10_1504,59.8748344068,Gestalt_exp1,001,14596,
images/k14.bmp,gestalt,,,0,64,64,13,,,,,,,4,1.602,,,,,,,2016_Oct_10_1504,59.8748344068,Gestalt_exp1,001,14596,
images/k21.bmp,gestalt,,,0,65,65,20,,,,,,,4,1.668,,,,,,,2016_Oct_10_1504,59.8748344068,Gestalt_exp1,001,14596,
images/k30.bmp,gestalt,,,0,66,66,29,,,,,,,4,1.552,,,,,,,2016_Oct_10_1504,59.8748344068,Gestalt_exp1,001,14596,
images/INVk29.bmp,inverted,,,0,67,67,81,,,,,,,4,1.436,,,,,,,2016_Oct_10_1504,59.8748344068,Gestalt_exp1,001,14596,
images/i17.bmp,scrambled,,,0,68,68,46,,,,,,,3,1.202,,,,,,,2016_Oct_10_1504,59.8748344068,Gestalt_exp1,001,14596,
images/i22.bmp,scrambled,,,0,69,69,51,,,,,,,5,1.536,,,,,,,2016_Oct_10_1504,59.8748344068,Gestalt_exp1,001,14596,
images/i06.bmp,scrambled,,,0,70,70,35,,,,,,,6,1.302,,,,,,,2016_Oct_10_1504,59.8748344068,Gestalt_exp1,001,14596,
images/i19.bmp,scrambled,,,0,71,71,48,,,,,,,5,1.752,,,,,,,2016_Oct_10_1504,59.8748344068,Gestalt_exp1,001,14596,
images/k12.bmp,gestalt,,,0,72,72,11,,,,,,,3,1.702,,,,,,,2016_Oct_10_1504,59.8748344068,Gestalt_exp1,001,14596,
images/k08.bmp,gestalt,,,0,73,73,7,,,,,,,3,1.536,,,,,,,2016_Oct_10_1504,59.8748344068,Gestalt_exp1,001,14596,
images/k11.bmp,gestalt,,,0,74,74,10,,,,,,,5,1.852,,,,,,,2016_Oct_10_1504,59.8748344068,Gestalt_exp1,001,14596,
images/i05.bmp,scrambled,,,0,75,75,34,,,,,,,5,1.319,,,,,,,2016_Oct_10_1504,59.8748344068,Gestalt_exp1,001,14596,
images/INVk04.bmp,inverted,,,0,76,76,62,,,,,,,3,1.352,,,,,,,2016_Oct_10_1504,59.8748344068,Gestalt_exp1,001,14596,
images/i20.bmp,scrambled,,,0,77,77,49,,,,,,,3,1.285,,,,,,,2016_Oct_10_1504,59.8748344068,Gestalt_exp1,001,14596,
images/k23.bmp,gestalt,,,0,78,78,22,,,,,,,6,1.502,,,,,,,2016_Oct_10_1504,59.8748344068,Gestalt_exp1,001,14596,
images/INVk15.bmp,inverted,,,0,79,79,69,,,,,,,5,1.285,,,,,,,2016_Oct_10_1504,59.8748344068,Gestalt_exp1,001,14596,
images/k19.bmp,gestalt,,,0,80,80,18,,,,,,,4,1.452,,,,,,,2016_Oct_10_1504,59.8748344068,Gestalt_exp1,001,14596,
images/i26.bmp,scrambled,,,0,81,81,55,,,,,,,6,1.352,,,,,,,2016_Oct_10_1504,59.8748344068,Gestalt_exp1,001,14596,
images/i03.bmp,scrambled,,,0,82,82,32,,,,,,,3,1.768,,,,,,,2016_Oct_10_1504,59.8748344068,Gestalt_exp1,001,14596,
,,,,,,,,,,,,,,,,space,25.7332649231,,,,,2016_Oct_10_1504,59.8748344068,Gestalt_exp1,001,14596,
,Inverted-Gestalt,images/k29.bmp,images/INVk29.bmp,,,,,0,0,0,74,,,,,,,right,1,right,2.05024504662,2016_Oct_10_1504,59.8748344068,Gestalt_exp1,001,14596,
,Gestalt-scrambled,images/i22.bmp,images/k22.bmp,,,,,0,1,1,21,,,,,,,left,0,right,0.416870117188,2016_Oct_10_1504,59.8748344068,Gestalt_exp1,001,14596,
,Gestalt-scrambled,images/i16.bmp,images/k16.bmp,,,,,0,2,2,15,,,,,,,left,0,right,0.500727891922,2016_Oct_10_1504,59.8748344068,Gestalt_exp1,001,14596,
,Inverted-scrambled,images/i30.bmp,images/INVk30.bmp,,,,,0,3,3,52,,,,,,,right,1,right,0.667093992233,2016_Oct_10_1504,59.8748344068,Gestalt_exp1,001,14596,
,Inverted-Gestalt,images/k27.bmp,images/INVk27.bmp,,,,,0,4,4,72,,,,,,,right,0,left,0.500185012817,2016_Oct_10_1504,59.8748344068,Gestalt_exp1,001,14596,
,Inverted-scrambled,images/i23.bmp,images/INVk23.bmp,,,,,0,5,5,45,,,,,,,left,0,right,0.883457899094,2016_Oct_10_1504,59.8748344068,Gestalt_exp1,001,14596,
,Inverted-scrambled,images/i28.bmp,images/INVk28.bmp,,,,,0,6,6,50,,,,,,,right,0,left,0.300009012222,2016_Oct_10_1504,59.8748344068,Gestalt_exp1,001,14596,
,Inverted-Gestalt,images/k02.bmp,images/INVk03.bmp,,,,,0,7,7,54,,,,,,,right,1,right,0.416111946106,2016_Oct_10_1504,59.8748344068,Gestalt_exp1,001,14596,
,Inverted-Gestalt,images/k01.bmp,images/INVk01.bmp,,,,,0,8,8,53,,,,,,,left,0,right,0.516840934753,2016_Oct_10_1504,59.8748344068,Gestalt_exp1,001,14596,
,Gestalt-scrambled,images/i25.bmp,images/k25.bmp,,,,,0,9,9,24,,,,,,,right,0,left,0.349472045898,2016_Oct_10_1504,59.8748344068,Gestalt_exp1,001,14596,
,Inverted-scrambled,images/i21.bmp,images/INVk21.bmp,,,,,0,10,10,43,,,,,,,left,0,right,0.466635942459,2016_Oct_10_1504,59.8748344068,Gestalt_exp1,001,14596,
,Gestalt-scrambled,images/i12.bmp,images/k12.bmp,,,,,0,11,11,11,,,,,,,right,1,right,0.333298921585,2016_Oct_10_1504,59.8748344068,Gestalt_exp1,001,14596,
,Gestalt-scrambled,images/i02.bmp,images/k02.bmp,,,,,0,12,12,1,,,,,,,left,1,left,0.483488798141,2016_Oct_10_1504,59.8748344068,Gestalt_exp1,001,14596,
,Gestalt-scrambled,images/i11.bmp,images/k11.bmp,,,,,0,13,13,10,,,,,,,right,1,right,0.434001922607,2016_Oct_10_1504,59.8748344068,Gestalt_exp1,001,14596,
,Inverted-scrambled,images/i02.bmp,images/INVk03.bmp,,,,,0,14,14,31,,,,,,,right,1,right,0.43351483345,2016_Oct_10_1504,59.8748344068,Gestalt_exp1,001,14596,
,Inverted-Gestalt,images/k10.bmp,images/INVk10.bmp,,,,,0,15,15,59,,,,,,,right,1,right,0.582964897156,2016_Oct_10_1504,59.8748344068,Gestalt_exp1,001,14596,
,Inverted-Gestalt,images/k05.bmp,images/INVk05.bmp,,,,,0,16,16,56,,,,,,,right,0,left,0.367031097412,2016_Oct_10_1504,59.8748344068,Gestalt_exp1,001,14596,
,Inverted-Gestalt,images/k14.bmp,images/INVk14.bmp,,,,,0,17,17,61,,,,,,,right,1,right,0.816871166229,2016_Oct_10_1504,59.8748344068,Gestalt_exp1,001,14596,
,Gestalt-scrambled,images/i15.bmp,images/k15.bmp,,,,,0,18,18,14,,,,,,,right,0,left,0.566623926163,2016_Oct_10_1504,59.8748344068,Gestalt_exp1,001,14596,
,Inverted-scrambled,images/i01.bmp,images/INVk01.bmp,,,,,0,19,19,30,,,,,,,left,1,left,0.634092092514,2016_Oct_10_1504,59.8748344068,Gestalt_exp1,001,14596,
,Gestalt-scrambled,images/i26.bmp,images/k26.bmp,,,,,0,20,20,25,,,,,,,left,0,right,0.367680072784,2016_Oct_10_1504,59.8748344068,Gestalt_exp1,001,14596,
,Gestalt-scrambled,images/i01.bmp,images/k01.bmp,,,,,0,21,21,0,,,,,,,right,0,left,0.516808986664,2016_Oct_10_1504,59.8748344068,Gestalt_exp1,001,14596,
,Inverted-Gestalt,images/k09.bmp,images/INVk09.bmp,,,,,0,22,22,58,,,,,,,left,0,right,0.766622066498,2016_Oct_10_1504,59.8748344068,Gestalt_exp1,001,14596,
,Inverted-Gestalt,images/k18.bmp,images/INVk18.bmp,,,,,0,23,23,64,,,,,,,right,1,right,0.833302021027,2016_Oct_10_1504,59.8748344068,Gestalt_exp1,001,14596,
,Inverted-scrambled,images/i18.bmp,images/INVk18.bmp,,,,,0,24,24,41,,,,,,,right,0,left,0.700192928314,2016_Oct_10_1504,59.8748344068,Gestalt_exp1,001,14596,
,Inverted-Gestalt,images/k22.bmp,images/INVk22.bmp,,,,,0,25,25,67,,,,,,,right,1,right,1.14986586571,2016_Oct_10_1504,59.8748344068,Gestalt_exp1,001,14596,
,Gestalt-scrambled,images/i24.bmp,images/k24.bmp,,,,,0,26,26,23,,,,,,,left,1,left,0.400200843811,2016_Oct_10_1504,59.8748344068,Gestalt_exp1,001,14596,
,Inverted-Gestalt,images/k21.bmp,images/INVk21.bmp,,,,,0,27,27,66,,,,,,,right,0,left,0.316662073135,2016_Oct_10_1504,59.8748344068,Gestalt_exp1,001,14596,
,Gestalt-scrambled,images/i04.bmp,images/k04.bmp,,,,,0,28,28,3,,,,,,,right,1,right,0.517062187195,2016_Oct_10_1504,59.8748344068,Gestalt_exp1,001,14596,
,Inverted-scrambled,images/i09.bmp,images/INVk09.bmp,,,,,0,29,29,35,,,,,,,left,0,right,0.882964134216,2016_Oct_10_1504,59.8748344068,Gestalt_exp1,001,14596,
,Gestalt-scrambled,images/i03.bmp,images/k03.bmp,,,,,0,30,30,2,,,,,,,right,1,right,0.450438976288,2016_Oct_10_1504,59.8748344068,Gestalt_exp1,001,14596,
,Inverted-Gestalt,images/k06.bmp,images/INVk06.bmp,,,,,0,31,31,57,,,,,,,right,1,right,0.749961853027,2016_Oct_10_1504,59.8748344068,Gestalt_exp1,001,14596,
,Inverted-scrambled,images/i06.bmp,images/INVk06.bmp,,,,,0,32,32,34,,,,,,,right,0,left,0.416961193085,2016_Oct_10_1504,59.8748344068,Gestalt_exp1,001,14596,
,Inverted-Gestalt,images/k30.bmp,images/INVk30.bmp,,,,,0,33,33,75,,,,,,,right,0,left,1.23369503021,2016_Oct_10_1504,59.8748344068,Gestalt_exp1,001,14596,
,Gestalt-scrambled,images/i28.bmp,images/k28.bmp,,,,,0,34,34,27,,,,,,,right,0,left,0.550249099731,2016_Oct_10_1504,59.8748344068,Gestalt_exp1,001,14596,
,Inverted-scrambled,images/i25.bmp,images/INVk25.bmp,,,,,0,35,35,47,,,,,,,right,0,left,0.383458137512,2016_Oct_10_1504,59.8748344068,Gestalt_exp1,001,14596,
,Inverted-Gestalt,images/k26.bmp,images/INVk26.bmp,,,,,0,36,36,71,,,,,,,right,0,left,0.949973106384,2016_Oct_10_1504,59.8748344068,Gestalt_exp1,001,14596,
,Gestalt-scrambled,images/i21.bmp,images/k21.bmp,,,,,0,37,37,20,,,,,,,right,0,left,0.733343839645,2016_Oct_10_1504,59.8748344068,Gestalt_exp1,001,14596,
,Inverted-scrambled,images/i04.bmp,images/INVk04.bmp,,,,,0,38,38,32,,,,,,,right,0,left,0.500105857849,2016_Oct_10_1504,59.8748344068,Gestalt_exp1,001,14596,
,Inverted-Gestalt,images/k16.bmp,images/INVk16.bmp,,,,,0,39,39,63,,,,,,,right,0,left,0.700150966644,2016_Oct_10_1504,59.8748344068,Gestalt_exp1,001,14596,
,Inverted-Gestalt,images/k25.bmp,images/INVk25.bmp,,,,,0,40,40,70,,,,,,,right,0,left,0.667097091675,2016_Oct_10_1504,59.8748344068,Gestalt_exp1,001,14596,
,Inverted-scrambled,images/i16.bmp,images/INVk16.bmp,,,,,0,41,41,40,,,,,,,right,1,right,0.500147104263,2016_Oct_10_1504,59.8748344068,Gestalt_exp1,001,14596,
,Inverted-scrambled,images/i12.bmp,images/INVk12.bmp,,,,,0,42,42,37,,,,,,,right,0,left,0.533746004105,2016_Oct_10_1504,59.8748344068,Gestalt_exp1,001,14596,
,Inverted-scrambled,images/i05.bmp,images/INVk05.bmp,,,,,0,43,43,33,,,,,,,left,0,right,0.533531904221,2016_Oct_10_1504,59.8748344068,Gestalt_exp1,001,14596,
,Gestalt-scrambled,images/i30.bmp,images/k30.bmp,,,,,0,44,44,29,,,,,,,right,0,left,0.299996852875,2016_Oct_10_1504,59.8748344068,Gestalt_exp1,001,14596,
,Gestalt-scrambled,images/i08.bmp,images/k08.bmp,,,,,0,45,45,7,,,,,,,right,0,left,0.932811975479,2016_Oct_10_1504,59.8748344068,Gestalt_exp1,001,14596,
,Gestalt-scrambled,images/i10.bmp,images/k10.bmp,,,,,0,46,46,9,,,,,,,right,1,right,0.700190067291,2016_Oct_10_1504,59.8748344068,Gestalt_exp1,001,14596,
,Inverted-Gestalt,images/k15.bmp,images/INVk15.bmp,,,,,0,47,47,62,,,,,,,left,1,left,0.333292007446,2016_Oct_10_1504,59.8748344068,Gestalt_exp1,001,14596,
,Inverted-scrambled,images/i27.bmp,images/INVk27.bmp,,,,,0,48,48,49,,,,,,,left,1,left,0.433690071106,2016_Oct_10_1504,59.8748344068,Gestalt_exp1,001,14596,
,Gestalt-scrambled,images/i27.bmp,images/k27.bmp,,,,,0,49,49,26,,,,,,,right,0,left,0.41686296463,2016_Oct_10_1504,59.8748344068,Gestalt_exp1,001,14596,
,Gestalt-scrambled,images/i29.bmp,images/k29.bmp,,,,,0,50,50,28,,,,,,,left,1,left,0.600131034851,2016_Oct_10_1504,59.8748344068,Gestalt_exp1,001,14596,
,Inverted-Gestalt,images/k12.bmp,images/INVk12.bmp,,,,,0,51,51,60,,,,,,,left,0,right,0.416764974594,2016_Oct_10_1504,59.8748344068,Gestalt_exp1,001,14596,
,Inverted-Gestalt,images/k19.bmp,images/INVk19.bmp,,,,,0,52,52,65,,,,,,,right,1,right,0.400823831558,2016_Oct_10_1504,59.8748344068,Gestalt_exp1,001,14596,
,Gestalt-scrambled,images/i05.bmp,images/k05.bmp,,,,,0,53,53,4,,,,,,,left,0,right,0.53268289566,2016_Oct_10_1504,59.8748344068,Gestalt_exp1,001,14596,
,Inverted-Gestalt,images/k24.bmp,images/INVk24.bmp,,,,,0,54,54,69,,,,,,,right,1,right,0.316817045212,2016_Oct_10_1504,59.8748344068,Gestalt_exp1,001,14596,
,Inverted-scrambled,images/i22.bmp,images/INVk22.bmp,,,,,0,55,55,44,,,,,,,left,0,right,0.384310007095,2016_Oct_10_1504,59.8748344068,Gestalt_exp1,001,14596,
,Inverted-scrambled,images/i15.bmp,images/INVk15.bmp,,,,,0,56,56,39,,,,,,,right,0,left,0.316960811615,2016_Oct_10_1504,59.8748344068,Gestalt_exp1,001,14596,
,Inverted-scrambled,images/i10.bmp,images/INVk10.bmp,,,,,0,57,57,36,,,,,,,right,0,left,0.483299016953,2016_Oct_10_1504,59.8748344068,Gestalt_exp1,001,14596,
,Inverted-scrambled,images/i26.bmp,images/INVk26.bmp,,,,,0,58,58,48,,,,,,,right,0,left,0.232686042786,2016_Oct_10_1504,59.8748344068,Gestalt_exp1,001,14596,
,Gestalt-scrambled,images/i23.bmp,images/k23.bmp,,,,,0,59,59,22,,,,,,,left,0,right,0.366838932037,2016_Oct_10_1504,59.8748344068,Gestalt_exp1,001,14596,
,Inverted-Gestalt,images/k28.bmp,images/INVk28.bmp,,,,,0,60,60,73,,,,,,,right,1,right,0.25014591217,2016_Oct_10_1504,59.8748344068,Gestalt_exp1,001,14596,
,Gestalt-scrambled,images/i17.bmp,images/k17.bmp,,,,,0,61,61,16,,,,,,,right,0,left,0.283451795578,2016_Oct_10_1504,59.8748344068,Gestalt_exp1,001,14596,
,Gestalt-scrambled,images/i20.bmp,images/k20.bmp,,,,,0,62,62,19,,,,,,,left,1,left,0.416836023331,2016_Oct_10_1504,59.8748344068,Gestalt_exp1,001,14596,
,Inverted-Gestalt,images/k23.bmp,images/INVk23.bmp,,,,,0,63,63,68,,,,,,,left,0,right,0.284283161163,2016_Oct_10_1504,59.8748344068,Gestalt_exp1,001,14596,
,Gestalt-scrambled,images/i19.bmp,images/k19.bmp,,,,,0,64,64,18,,,,,,,left,1,left,0.31697010994,2016_Oct_10_1504,59.8748344068,Gestalt_exp1,001,14596,
,Inverted-scrambled,images/i19.bmp,images/INVk19.bmp,,,,,0,65,65,42,,,,,,,left,0,right,0.299897909164,2016_Oct_10_1504,59.8748344068,Gestalt_exp1,001,14596,
,Inverted-Gestalt,images/k04.bmp,images/INVk04.bmp,,,,,0,66,66,55,,,,,,,right,1,right,0.233716964722,2016_Oct_10_1504,59.8748344068,Gestalt_exp1,001,14596,
,Inverted-scrambled,images/i24.bmp,images/INVk24.bmp,,,,,0,67,67,46,,,,,,,right,0,left,0.149996042252,2016_Oct_10_1504,59.8748344068,Gestalt_exp1,001,14596,
,Gestalt-scrambled,images/i07.bmp,images/k07.bmp,,,,,0,68,68,6,,,,,,,right,0,left,0.283327102661,2016_Oct_10_1504,59.8748344068,Gestalt_exp1,001,14596,
,Gestalt-scrambled,images/i13.bmp,images/k13.bmp,,,,,0,69,69,12,,,,,,,left,0,right,0.566633939743,2016_Oct_10_1504,59.8748344068,Gestalt_exp1,001,14596,
,Gestalt-scrambled,images/i06.bmp,images/k06.bmp,,,,,0,70,70,5,,,,,,,left,0,right,0.300754070282,2016_Oct_10_1504,59.8748344068,Gestalt_exp1,001,14596,
,Gestalt-scrambled,images/i09.bmp,images/k09.bmp,,,,,0,71,71,8,,,,,,,right,0,left,0.333535194397,2016_Oct_10_1504,59.8748344068,Gestalt_exp1,001,14596,
,Inverted-scrambled,images/i29.bmp,images/INVk29.bmp,,,,,0,72,72,51,,,,,,,left,1,left,0.350034952164,2016_Oct_10_1504,59.8748344068,Gestalt_exp1,001,14596,
,Gestalt-scrambled,images/i18.bmp,images/k18.bmp,,,,,0,73,73,17,,,,,,,right,0,left,0.299986839294,2016_Oct_10_1504,59.8748344068,Gestalt_exp1,001,14596,
,Gestalt-scrambled,images/i14.bmp,images/k14.bmp,,,,,0,74,74,13,,,,,,,right,0,left,0.300209999084,2016_Oct_10_1504,59.8748344068,Gestalt_exp1,001,14596,
,Inverted-scrambled,images/i14.bmp,images/INVk14.bmp,,,,,0,75,75,38,,,,,,,left,0,right,0.300255060196,2016_Oct_10_1504,59.8748344068,Gestalt_exp1,001,14596,
