images,condition,imgB,imgA,trials.thisRepN,trials.thisTrialN,trials.thisN,trials.thisIndex,numLoop.thisRepN,numLoop.thisTrialN,numLoop.thisN,numLoop.thisIndex,response.keys,response.rt,rating.response,rating.rt,key_resp_2.keys,key_resp_2.rt,numResp.keys,numResp.corr,numResp.Alocation,numResp.rt,date,frameRate,expName,session,participant,
,,,,,,,,,,,,space,64.3098888397,,,,,,,,,2016_Aug_24_1628,59.9268471105,Gestalt_exp1,001,18460,
images/i07.bmp,scrambled,,,0,0,0,36,,,,,,,5,9.119,,,,,,,2016_Aug_24_1628,59.9268471105,Gestalt_exp1,001,18460,
images/INVk16.bmp,inverted,,,0,1,1,70,,,,,,,5,4.586,,,,,,,2016_Aug_24_1628,59.9268471105,Gestalt_exp1,001,18460,
images/i20.bmp,scrambled,,,0,2,2,49,,,,,,,4,3.202,,,,,,,2016_Aug_24_1628,59.9268471105,Gestalt_exp1,001,18460,
images/i11.bmp,scrambled,,,0,3,3,40,,,,,,,5,2.119,,,,,,,2016_Aug_24_1628,59.9268471105,Gestalt_exp1,001,18460,
images/k18.bmp,gestalt,,,0,4,4,17,,,,,,,4,2.752,,,,,,,2016_Aug_24_1628,59.9268471105,Gestalt_exp1,001,18460,
images/INVk21.bmp,inverted,,,0,5,5,73,,,,,,,3,4.185,,,,,,,2016_Aug_24_1628,59.9268471105,Gestalt_exp1,001,18460,
images/k12.bmp,gestalt,,,0,6,6,11,,,,,,,1,3.852,,,,,,,2016_Aug_24_1628,59.9268471105,Gestalt_exp1,001,18460,
images/INVk06.bmp,inverted,,,0,7,7,64,,,,,,,1,7.085,,,,,,,2016_Aug_24_1628,59.9268471105,Gestalt_exp1,001,18460,
images/i14.bmp,scrambled,,,0,8,8,43,,,,,,,1,3.035,,,,,,,2016_Aug_24_1628,59.9268471105,Gestalt_exp1,001,18460,
images/k24.bmp,gestalt,,,0,9,9,23,,,,,,,3,2.752,,,,,,,2016_Aug_24_1628,59.9268471105,Gestalt_exp1,001,18460,
images/k06.bmp,gestalt,,,0,10,10,5,,,,,,,3,3.385,,,,,,,2016_Aug_24_1628,59.9268471105,Gestalt_exp1,001,18460,
images/k30.bmp,gestalt,,,0,11,11,29,,,,,,,3,2.486,,,,,,,2016_Aug_24_1628,59.9268471105,Gestalt_exp1,001,18460,
images/k16.bmp,gestalt,,,0,12,12,15,,,,,,,4,2.852,,,,,,,2016_Aug_24_1628,59.9268471105,Gestalt_exp1,001,18460,
images/INVk27.bmp,inverted,,,0,13,13,79,,,,,,,4,1.902,,,,,,,2016_Aug_24_1628,59.9268471105,Gestalt_exp1,001,18460,
images/k20.bmp,gestalt,,,0,14,14,19,,,,,,,4,3.418,,,,,,,2016_Aug_24_1628,59.9268471105,Gestalt_exp1,001,18460,
images/INVk03.bmp,inverted,,,0,15,15,61,,,,,,,5,1.885,,,,,,,2016_Aug_24_1628,59.9268471105,Gestalt_exp1,001,18460,
images/i18.bmp,scrambled,,,0,16,16,47,,,,,,,4,2.285,,,,,,,2016_Aug_24_1628,59.9268471105,Gestalt_exp1,001,18460,
images/i21.bmp,scrambled,,,0,17,17,50,,,,,,,3,2.785,,,,,,,2016_Aug_24_1628,59.9268471105,Gestalt_exp1,001,18460,
images/INVk26.bmp,inverted,,,0,18,18,78,,,,,,,4,2.685,,,,,,,2016_Aug_24_1628,59.9268471105,Gestalt_exp1,001,18460,
images/i04.bmp,scrambled,,,0,19,19,33,,,,,,,4,4.786,,,,,,,2016_Aug_24_1628,59.9268471105,Gestalt_exp1,001,18460,
images/INVk22.bmp,inverted,,,0,20,20,74,,,,,,,5,2.802,,,,,,,2016_Aug_24_1628,59.9268471105,Gestalt_exp1,001,18460,
images/i30.bmp,scrambled,,,0,21,21,59,,,,,,,5,1.636,,,,,,,2016_Aug_24_1628,59.9268471105,Gestalt_exp1,001,18460,
images/i16.bmp,scrambled,,,0,22,22,45,,,,,,,4,2.053,,,,,,,2016_Aug_24_1628,59.9268471105,Gestalt_exp1,001,18460,
images/INVk18.bmp,inverted,,,0,23,23,71,,,,,,,5,1.919,,,,,,,2016_Aug_24_1628,59.9268471105,Gestalt_exp1,001,18460,
images/i06.bmp,scrambled,,,0,24,24,35,,,,,,,5,1.952,,,,,,,2016_Aug_24_1628,59.9268471105,Gestalt_exp1,001,18460,
images/k01.bmp,gestalt,,,0,25,25,0,,,,,,,3,1.885,,,,,,,2016_Aug_24_1628,59.9268471105,Gestalt_exp1,001,18460,
images/INVk05.bmp,inverted,,,0,26,26,63,,,,,,,3,2.302,,,,,,,2016_Aug_24_1628,59.9268471105,Gestalt_exp1,001,18460,
images/INVk28.bmp,inverted,,,0,27,27,80,,,,,,,3,2.068,,,,,,,2016_Aug_24_1628,59.9268471105,Gestalt_exp1,001,18460,
images/k08.bmp,gestalt,,,0,28,28,7,,,,,,,4,2.269,,,,,,,2016_Aug_24_1628,59.9268471105,Gestalt_exp1,001,18460,
images/i13.bmp,scrambled,,,0,29,29,42,,,,,,,5,1.485,,,,,,,2016_Aug_24_1628,59.9268471105,Gestalt_exp1,001,18460,
images/i15.bmp,scrambled,,,0,30,30,44,,,,,,,5,1.702,,,,,,,2016_Aug_24_1628,59.9268471105,Gestalt_exp1,001,18460,
images/INVk15.bmp,inverted,,,0,31,31,69,,,,,,,4,2.336,,,,,,,2016_Aug_24_1628,59.9268471105,Gestalt_exp1,001,18460,
images/INVk23.bmp,inverted,,,0,32,32,75,,,,,,,5,2.236,,,,,,,2016_Aug_24_1628,59.9268471105,Gestalt_exp1,001,18460,
images/INVk30.bmp,inverted,,,0,33,33,82,,,,,,,4,1.802,,,,,,,2016_Aug_24_1628,59.9268471105,Gestalt_exp1,001,18460,
images/i22.bmp,scrambled,,,0,34,34,51,,,,,,,5,1.335,,,,,,,2016_Aug_24_1628,59.9268471105,Gestalt_exp1,001,18460,
images/k17.bmp,gestalt,,,0,35,35,16,,,,,,,4,1.685,,,,,,,2016_Aug_24_1628,59.9268471105,Gestalt_exp1,001,18460,
images/k07.bmp,gestalt,,,0,36,36,6,,,,,,,5,1.568,,,,,,,2016_Aug_24_1628,59.9268471105,Gestalt_exp1,001,18460,
images/k10.bmp,gestalt,,,0,37,37,9,,,,,,,3,3.785,,,,,,,2016_Aug_24_1628,59.9268471105,Gestalt_exp1,001,18460,
images/k14.bmp,gestalt,,,0,38,38,13,,,,,,,4,3.135,,,,,,,2016_Aug_24_1628,59.9268471105,Gestalt_exp1,001,18460,
images/k19.bmp,gestalt,,,0,39,39,18,,,,,,,4,1.652,,,,,,,2016_Aug_24_1628,59.9268471105,Gestalt_exp1,001,18460,
images/k09.bmp,gestalt,,,0,40,40,8,,,,,,,3,2.285,,,,,,,2016_Aug_24_1628,59.9268471105,Gestalt_exp1,001,18460,
images/i05.bmp,scrambled,,,0,41,41,34,,,,,,,4,1.819,,,,,,,2016_Aug_24_1628,59.9268471105,Gestalt_exp1,001,18460,
images/k27.bmp,gestalt,,,0,42,42,26,,,,,,,4,1.936,,,,,,,2016_Aug_24_1628,59.9268471105,Gestalt_exp1,001,18460,
images/INVk24.bmp,inverted,,,0,43,43,76,,,,,,,5,2.318,,,,,,,2016_Aug_24_1628,59.9268471105,Gestalt_exp1,001,18460,
images/i17.bmp,scrambled,,,0,44,44,46,,,,,,,4,1.919,,,,,,,2016_Aug_24_1628,59.9268471105,Gestalt_exp1,001,18460,
images/k11.bmp,gestalt,,,0,45,45,10,,,,,,,3,2.203,,,,,,,2016_Aug_24_1628,59.9268471105,Gestalt_exp1,001,18460,
images/i24.bmp,scrambled,,,0,46,46,53,,,,,,,3,2.219,,,,,,,2016_Aug_24_1628,59.9268471105,Gestalt_exp1,001,18460,
images/i27.bmp,scrambled,,,0,47,47,56,,,,,,,4,1.802,,,,,,,2016_Aug_24_1628,59.9268471105,Gestalt_exp1,001,18460,
images/k25.bmp,gestalt,,,0,48,48,24,,,,,,,4,1.952,,,,,,,2016_Aug_24_1628,59.9268471105,Gestalt_exp1,001,18460,
images/k23.bmp,gestalt,,,0,49,49,22,,,,,,,5,1.702,,,,,,,2016_Aug_24_1628,59.9268471105,Gestalt_exp1,001,18460,
images/i08.bmp,scrambled,,,0,50,50,37,,,,,,,3,2.102,,,,,,,2016_Aug_24_1628,59.9268471105,Gestalt_exp1,001,18460,
images/k29.bmp,gestalt,,,0,51,51,28,,,,,,,5,1.868,,,,,,,2016_Aug_24_1628,59.9268471105,Gestalt_exp1,001,18460,
images/i23.bmp,scrambled,,,0,52,52,52,,,,,,,5,1.768,,,,,,,2016_Aug_24_1628,59.9268471105,Gestalt_exp1,001,18460,
images/k02.bmp,gestalt,,,0,53,53,1,,,,,,,3,1.768,,,,,,,2016_Aug_24_1628,59.9268471105,Gestalt_exp1,001,18460,
images/k04.bmp,gestalt,,,0,54,54,3,,,,,,,3,2.368,,,,,,,2016_Aug_24_1628,59.9268471105,Gestalt_exp1,001,18460,
images/k28.bmp,gestalt,,,0,55,55,27,,,,,,,4,2.152,,,,,,,2016_Aug_24_1628,59.9268471105,Gestalt_exp1,001,18460,
images/i03.bmp,scrambled,,,0,56,56,32,,,,,,,4,2.202,,,,,,,2016_Aug_24_1628,59.9268471105,Gestalt_exp1,001,18460,
images/k13.bmp,gestalt,,,0,57,57,12,,,,,,,5,2.002,,,,,,,2016_Aug_24_1628,59.9268471105,Gestalt_exp1,001,18460,
images/k22.bmp,gestalt,,,0,58,58,21,,,,,,,4,2.302,,,,,,,2016_Aug_24_1628,59.9268471105,Gestalt_exp1,001,18460,
images/INVk29.bmp,inverted,,,0,59,59,81,,,,,,,5,3.585,,,,,,,2016_Aug_24_1628,59.9268471105,Gestalt_exp1,001,18460,
images/i02.bmp,scrambled,,,0,60,60,31,,,,,,,3,2.286,,,,,,,2016_Aug_24_1628,59.9268471105,Gestalt_exp1,001,18460,
images/INVk09.bmp,inverted,,,0,61,61,65,,,,,,,2,2.002,,,,,,,2016_Aug_24_1628,59.9268471105,Gestalt_exp1,001,18460,
images/INVk10.bmp,inverted,,,0,62,62,66,,,,,,,2,1.451,,,,,,,2016_Aug_24_1628,59.9268471105,Gestalt_exp1,001,18460,
images/INVk19.bmp,inverted,,,0,63,63,72,,,,,,,2,1.502,,,,,,,2016_Aug_24_1628,59.9268471105,Gestalt_exp1,001,18460,
images/INVk12.bmp,inverted,,,0,64,64,67,,,,,,,2,1.735,,,,,,,2016_Aug_24_1628,59.9268471105,Gestalt_exp1,001,18460,
images/i01.bmp,scrambled,,,0,65,65,30,,,,,,,5,2.235,,,,,,,2016_Aug_24_1628,59.9268471105,Gestalt_exp1,001,18460,
images/k05.bmp,gestalt,,,0,66,66,4,,,,,,,4,3.152,,,,,,,2016_Aug_24_1628,59.9268471105,Gestalt_exp1,001,18460,
images/INVk14.bmp,inverted,,,0,67,67,68,,,,,,,4,2.702,,,,,,,2016_Aug_24_1628,59.9268471105,Gestalt_exp1,001,18460,
images/INVk04.bmp,inverted,,,0,68,68,62,,,,,,,3,2.336,,,,,,,2016_Aug_24_1628,59.9268471105,Gestalt_exp1,001,18460,
images/k15.bmp,gestalt,,,0,69,69,14,,,,,,,5,1.502,,,,,,,2016_Aug_24_1628,59.9268471105,Gestalt_exp1,001,18460,
images/i10.bmp,scrambled,,,0,70,70,39,,,,,,,4,2.119,,,,,,,2016_Aug_24_1628,59.9268471105,Gestalt_exp1,001,18460,
images/k26.bmp,gestalt,,,0,71,71,25,,,,,,,4,1.72,,,,,,,2016_Aug_24_1628,59.9268471105,Gestalt_exp1,001,18460,
images/i29.bmp,scrambled,,,0,72,72,58,,,,,,,3,1.769,,,,,,,2016_Aug_24_1628,59.9268471105,Gestalt_exp1,001,18460,
images/k03.bmp,gestalt,,,0,73,73,2,,,,,,,4,1.902,,,,,,,2016_Aug_24_1628,59.9268471105,Gestalt_exp1,001,18460,
images/INVk25.bmp,inverted,,,0,74,74,77,,,,,,,4,1.336,,,,,,,2016_Aug_24_1628,59.9268471105,Gestalt_exp1,001,18460,
images/i09.bmp,scrambled,,,0,75,75,38,,,,,,,4,1.485,,,,,,,2016_Aug_24_1628,59.9268471105,Gestalt_exp1,001,18460,
images/INVk01.bmp,inverted,,,0,76,76,60,,,,,,,4,1.385,,,,,,,2016_Aug_24_1628,59.9268471105,Gestalt_exp1,001,18460,
images/i26.bmp,scrambled,,,0,77,77,55,,,,,,,4,1.302,,,,,,,2016_Aug_24_1628,59.9268471105,Gestalt_exp1,001,18460,
images/i19.bmp,scrambled,,,0,78,78,48,,,,,,,4,1.302,,,,,,,2016_Aug_24_1628,59.9268471105,Gestalt_exp1,001,18460,
images/k21.bmp,gestalt,,,0,79,79,20,,,,,,,4,1.619,,,,,,,2016_Aug_24_1628,59.9268471105,Gestalt_exp1,001,18460,
images/i12.bmp,scrambled,,,0,80,80,41,,,,,,,4,1.685,,,,,,,2016_Aug_24_1628,59.9268471105,Gestalt_exp1,001,18460,
images/i28.bmp,scrambled,,,0,81,81,57,,,,,,,5,1.952,,,,,,,2016_Aug_24_1628,59.9268471105,Gestalt_exp1,001,18460,
images/i25.bmp,scrambled,,,0,82,82,54,,,,,,,4,1.651,,,,,,,2016_Aug_24_1628,59.9268471105,Gestalt_exp1,001,18460,
,,,,,,,,,,,,,,,,space,18.9833271503,,,,,2016_Aug_24_1628,59.9268471105,Gestalt_exp1,001,18460,
,Inverted-scrambled,images/i26.bmp,images/INVk26.bmp,,,,,0,0,0,48,,,,,,,right,1,right,0.566073894501,2016_Aug_24_1628,59.9268471105,Gestalt_exp1,001,18460,
,Inverted-Gestalt,images/k05.bmp,images/INVk05.bmp,,,,,0,1,1,56,,,,,,,left,0,right,0.582947969437,2016_Aug_24_1628,59.9268471105,Gestalt_exp1,001,18460,
,Gestalt-scrambled,images/i12.bmp,images/k12.bmp,,,,,0,2,2,11,,,,,,,right,0,left,0.233672857285,2016_Aug_24_1628,59.9268471105,Gestalt_exp1,001,18460,
,Gestalt-scrambled,images/i29.bmp,images/k29.bmp,,,,,0,3,3,28,,,,,,,right,0,left,0.183518886566,2016_Aug_24_1628,59.9268471105,Gestalt_exp1,001,18460,
,Inverted-Gestalt,images/k30.bmp,images/INVk30.bmp,,,,,0,4,4,75,,,,,,,right,1,right,0.600175857544,2016_Aug_24_1628,59.9268471105,Gestalt_exp1,001,18460,
,Inverted-scrambled,images/i06.bmp,images/INVk06.bmp,,,,,0,5,5,34,,,,,,,left,1,left,0.633814096451,2016_Aug_24_1628,59.9268471105,Gestalt_exp1,001,18460,
,Gestalt-scrambled,images/i03.bmp,images/k03.bmp,,,,,0,6,6,2,,,,,,,left,0,right,0.549962997437,2016_Aug_24_1628,59.9268471105,Gestalt_exp1,001,18460,
,Inverted-scrambled,images/i01.bmp,images/INVk01.bmp,,,,,0,7,7,30,,,,,,,right,1,right,0.300192117691,2016_Aug_24_1628,59.9268471105,Gestalt_exp1,001,18460,
,Inverted-Gestalt,images/k24.bmp,images/INVk24.bmp,,,,,0,8,8,69,,,,,,,right,0,left,0.733527898788,2016_Aug_24_1628,59.9268471105,Gestalt_exp1,001,18460,
,Inverted-Gestalt,images/k10.bmp,images/INVk10.bmp,,,,,0,9,9,59,,,,,,,left,0,right,0.533277988434,2016_Aug_24_1628,59.9268471105,Gestalt_exp1,001,18460,
,Inverted-Gestalt,images/k15.bmp,images/INVk15.bmp,,,,,0,10,10,62,,,,,,,right,0,left,0.216845989227,2016_Aug_24_1628,59.9268471105,Gestalt_exp1,001,18460,
,Gestalt-scrambled,images/i02.bmp,images/k02.bmp,,,,,0,11,11,1,,,,,,,right,0,left,0.166323900223,2016_Aug_24_1628,59.9268471105,Gestalt_exp1,001,18460,
,Inverted-scrambled,images/i16.bmp,images/INVk16.bmp,,,,,0,12,12,40,,,,,,,left,0,right,0.216516971588,2016_Aug_24_1628,59.9268471105,Gestalt_exp1,001,18460,
,Inverted-scrambled,images/i15.bmp,images/INVk15.bmp,,,,,0,13,13,39,,,,,,,right,0,left,0.550740003586,2016_Aug_24_1628,59.9268471105,Gestalt_exp1,001,18460,
,Inverted-scrambled,images/i02.bmp,images/INVk03.bmp,,,,,0,14,14,31,,,,,,,right,1,right,0.21693110466,2016_Aug_24_1628,59.9268471105,Gestalt_exp1,001,18460,
,Gestalt-scrambled,images/i01.bmp,images/k01.bmp,,,,,0,15,15,0,,,,,,,left,1,left,0.250011205673,2016_Aug_24_1628,59.9268471105,Gestalt_exp1,001,18460,
,Gestalt-scrambled,images/i08.bmp,images/k08.bmp,,,,,0,16,16,7,,,,,,,right,0,left,0.266845941544,2016_Aug_24_1628,59.9268471105,Gestalt_exp1,001,18460,
,Inverted-scrambled,images/i30.bmp,images/INVk30.bmp,,,,,0,17,17,52,,,,,,,right,1,right,0.18331694603,2016_Aug_24_1628,59.9268471105,Gestalt_exp1,001,18460,
,Inverted-Gestalt,images/k14.bmp,images/INVk14.bmp,,,,,0,18,18,61,,,,,,,left,0,right,0.616875886917,2016_Aug_24_1628,59.9268471105,Gestalt_exp1,001,18460,
,Inverted-scrambled,images/i19.bmp,images/INVk19.bmp,,,,,0,19,19,42,,,,,,,right,0,left,0.583483934402,2016_Aug_24_1628,59.9268471105,Gestalt_exp1,001,18460,
,Inverted-scrambled,images/i05.bmp,images/INVk05.bmp,,,,,0,20,20,33,,,,,,,right,1,right,0.566859960556,2016_Aug_24_1628,59.9268471105,Gestalt_exp1,001,18460,
,Gestalt-scrambled,images/i24.bmp,images/k24.bmp,,,,,0,21,21,23,,,,,,,right,1,right,0.683550834656,2016_Aug_24_1628,59.9268471105,Gestalt_exp1,001,18460,
,Gestalt-scrambled,images/i27.bmp,images/k27.bmp,,,,,0,22,22,26,,,,,,,right,0,left,0.333523035049,2016_Aug_24_1628,59.9268471105,Gestalt_exp1,001,18460,
,Gestalt-scrambled,images/i20.bmp,images/k20.bmp,,,,,0,23,23,19,,,,,,,right,0,left,0.33352804184,2016_Aug_24_1628,59.9268471105,Gestalt_exp1,001,18460,
,Gestalt-scrambled,images/i25.bmp,images/k25.bmp,,,,,0,24,24,24,,,,,,,right,0,left,0.383538961411,2016_Aug_24_1628,59.9268471105,Gestalt_exp1,001,18460,
,Gestalt-scrambled,images/i13.bmp,images/k13.bmp,,,,,0,25,25,12,,,,,,,left,0,right,0.184242963791,2016_Aug_24_1628,59.9268471105,Gestalt_exp1,001,18460,
,Gestalt-scrambled,images/i18.bmp,images/k18.bmp,,,,,0,26,26,17,,,,,,,right,1,right,0.216846942902,2016_Aug_24_1628,59.9268471105,Gestalt_exp1,001,18460,
,Gestalt-scrambled,images/i28.bmp,images/k28.bmp,,,,,0,27,27,27,,,,,,,left,1,left,0.683302879333,2016_Aug_24_1628,59.9268471105,Gestalt_exp1,001,18460,
,Gestalt-scrambled,images/i11.bmp,images/k11.bmp,,,,,0,28,28,10,,,,,,,right,1,right,0.232712984085,2016_Aug_24_1628,59.9268471105,Gestalt_exp1,001,18460,
,Gestalt-scrambled,images/i09.bmp,images/k09.bmp,,,,,0,29,29,8,,,,,,,right,0,left,0.134177923203,2016_Aug_24_1628,59.9268471105,Gestalt_exp1,001,18460,
,Gestalt-scrambled,images/i17.bmp,images/k17.bmp,,,,,0,30,30,16,,,,,,,right,0,left,0.283488035202,2016_Aug_24_1628,59.9268471105,Gestalt_exp1,001,18460,
,Inverted-scrambled,images/i21.bmp,images/INVk21.bmp,,,,,0,31,31,43,,,,,,,right,0,left,0.350438117981,2016_Aug_24_1628,59.9268471105,Gestalt_exp1,001,18460,
,Inverted-Gestalt,images/k16.bmp,images/INVk16.bmp,,,,,0,32,32,63,,,,,,,left,1,left,0.316853046417,2016_Aug_24_1628,59.9268471105,Gestalt_exp1,001,18460,
,Gestalt-scrambled,images/i10.bmp,images/k10.bmp,,,,,0,33,33,9,,,,,,,left,1,left,0.71682882309,2016_Aug_24_1628,59.9268471105,Gestalt_exp1,001,18460,
,Inverted-Gestalt,images/k28.bmp,images/INVk28.bmp,,,,,0,34,34,73,,,,,,,right,0,left,0.583524942398,2016_Aug_24_1628,59.9268471105,Gestalt_exp1,001,18460,
,Inverted-scrambled,images/i04.bmp,images/INVk04.bmp,,,,,0,35,35,32,,,,,,,left,0,right,0.583329916,2016_Aug_24_1628,59.9268471105,Gestalt_exp1,001,18460,
,Inverted-scrambled,images/i23.bmp,images/INVk23.bmp,,,,,0,36,36,45,,,,,,,right,1,right,0.21687412262,2016_Aug_24_1628,59.9268471105,Gestalt_exp1,001,18460,
,Inverted-scrambled,images/i10.bmp,images/INVk10.bmp,,,,,0,37,37,36,,,,,,,left,0,right,0.367063045502,2016_Aug_24_1628,59.9268471105,Gestalt_exp1,001,18460,
,Inverted-scrambled,images/i22.bmp,images/INVk22.bmp,,,,,0,38,38,44,,,,,,,right,1,right,0.167087078094,2016_Aug_24_1628,59.9268471105,Gestalt_exp1,001,18460,
,Inverted-Gestalt,images/k04.bmp,images/INVk04.bmp,,,,,0,39,39,55,,,,,,,left,0,right,0.367614984512,2016_Aug_24_1628,59.9268471105,Gestalt_exp1,001,18460,
,Gestalt-scrambled,images/i21.bmp,images/k21.bmp,,,,,0,40,40,20,,,,,,,right,1,right,0.184306144714,2016_Aug_24_1628,59.9268471105,Gestalt_exp1,001,18460,
,Inverted-Gestalt,images/k01.bmp,images/INVk01.bmp,,,,,0,41,41,53,,,,,,,right,0,left,0.250464916229,2016_Aug_24_1628,59.9268471105,Gestalt_exp1,001,18460,
,Gestalt-scrambled,images/i04.bmp,images/k04.bmp,,,,,0,42,42,3,,,,,,,right,1,right,0.167091846466,2016_Aug_24_1628,59.9268471105,Gestalt_exp1,001,18460,
,Inverted-Gestalt,images/k06.bmp,images/INVk06.bmp,,,,,0,43,43,57,,,,,,,right,0,left,0.567188024521,2016_Aug_24_1628,59.9268471105,Gestalt_exp1,001,18460,
,Inverted-scrambled,images/i18.bmp,images/INVk18.bmp,,,,,0,44,44,41,,,,,,,right,0,left,0.300159215927,2016_Aug_24_1628,59.9268471105,Gestalt_exp1,001,18460,
,Inverted-Gestalt,images/k18.bmp,images/INVk18.bmp,,,,,0,45,45,64,,,,,,,right,1,right,0.216840982437,2016_Aug_24_1628,59.9268471105,Gestalt_exp1,001,18460,
,Gestalt-scrambled,images/i26.bmp,images/k26.bmp,,,,,0,46,46,25,,,,,,,right,0,left,0.516100883484,2016_Aug_24_1628,59.9268471105,Gestalt_exp1,001,18460,
,Inverted-scrambled,images/i28.bmp,images/INVk28.bmp,,,,,0,47,47,50,,,,,,,left,0,right,0.317281961441,2016_Aug_24_1628,59.9268471105,Gestalt_exp1,001,18460,
,Inverted-Gestalt,images/k19.bmp,images/INVk19.bmp,,,,,0,48,48,65,,,,,,,right,0,left,0.300709009171,2016_Aug_24_1628,59.9268471105,Gestalt_exp1,001,18460,
,Inverted-Gestalt,images/k26.bmp,images/INVk26.bmp,,,,,0,49,49,71,,,,,,,left,1,left,0.400161027908,2016_Aug_24_1628,59.9268471105,Gestalt_exp1,001,18460,
,Inverted-scrambled,images/i27.bmp,images/INVk27.bmp,,,,,0,50,50,49,,,,,,,right,0,left,0.183306932449,2016_Aug_24_1628,59.9268471105,Gestalt_exp1,001,18460,
,Inverted-scrambled,images/i14.bmp,images/INVk14.bmp,,,,,0,51,51,38,,,,,,,right,1,right,0.300417900085,2016_Aug_24_1628,59.9268471105,Gestalt_exp1,001,18460,
,Inverted-Gestalt,images/k25.bmp,images/INVk25.bmp,,,,,0,52,52,70,,,,,,,right,0,left,0.350429058075,2016_Aug_24_1628,59.9268471105,Gestalt_exp1,001,18460,
,Inverted-scrambled,images/i29.bmp,images/INVk29.bmp,,,,,0,53,53,51,,,,,,,right,1,right,0.233206987381,2016_Aug_24_1628,59.9268471105,Gestalt_exp1,001,18460,
,Gestalt-scrambled,images/i06.bmp,images/k06.bmp,,,,,0,54,54,5,,,,,,,right,0,left,0.366594076157,2016_Aug_24_1628,59.9268471105,Gestalt_exp1,001,18460,
,Inverted-Gestalt,images/k09.bmp,images/INVk09.bmp,,,,,0,55,55,58,,,,,,,right,0,left,0.166694164276,2016_Aug_24_1628,59.9268471105,Gestalt_exp1,001,18460,
,Gestalt-scrambled,images/i14.bmp,images/k14.bmp,,,,,0,56,56,13,,,,,,,right,0,left,0.150143861771,2016_Aug_24_1628,59.9268471105,Gestalt_exp1,001,18460,
,Inverted-scrambled,images/i12.bmp,images/INVk12.bmp,,,,,0,57,57,37,,,,,,,right,0,left,0.383288860321,2016_Aug_24_1628,59.9268471105,Gestalt_exp1,001,18460,
,Inverted-scrambled,images/i25.bmp,images/INVk25.bmp,,,,,0,58,58,47,,,,,,,right,1,right,0.234040975571,2016_Aug_24_1628,59.9268471105,Gestalt_exp1,001,18460,
,Inverted-Gestalt,images/k21.bmp,images/INVk21.bmp,,,,,0,59,59,66,,,,,,,right,0,left,0.116932153702,2016_Aug_24_1628,59.9268471105,Gestalt_exp1,001,18460,
,Inverted-Gestalt,images/k22.bmp,images/INVk22.bmp,,,,,0,60,60,67,,,,,,,left,1,left,0.0666580200195,2016_Aug_24_1628,59.9268471105,Gestalt_exp1,001,18460,
,Inverted-Gestalt,images/k27.bmp,images/INVk27.bmp,,,,,0,61,61,72,,,,,,,right,0,left,0.249967098236,2016_Aug_24_1628,59.9268471105,Gestalt_exp1,001,18460,
,Inverted-Gestalt,images/k02.bmp,images/INVk03.bmp,,,,,0,62,62,54,,,,,,,right,0,left,0.134043931961,2016_Aug_24_1628,59.9268471105,Gestalt_exp1,001,18460,
,Gestalt-scrambled,images/i23.bmp,images/k23.bmp,,,,,0,63,63,22,,,,,,,right,1,right,0.267678022385,2016_Aug_24_1628,59.9268471105,Gestalt_exp1,001,18460,
,Gestalt-scrambled,images/i19.bmp,images/k19.bmp,,,,,0,64,64,18,,,,,,,right,1,right,0.200169086456,2016_Aug_24_1628,59.9268471105,Gestalt_exp1,001,18460,
,Gestalt-scrambled,images/i30.bmp,images/k30.bmp,,,,,0,65,65,29,,,,,,,right,0,left,0.283306121826,2016_Aug_24_1628,59.9268471105,Gestalt_exp1,001,18460,
,Gestalt-scrambled,images/i16.bmp,images/k16.bmp,,,,,0,66,66,15,,,,,,,left,1,left,0.500711917877,2016_Aug_24_1628,59.9268471105,Gestalt_exp1,001,18460,
,Inverted-Gestalt,images/k23.bmp,images/INVk23.bmp,,,,,0,67,67,68,,,,,,,right,1,right,6.41673898697,2016_Aug_24_1628,59.9268471105,Gestalt_exp1,001,18460,
,Inverted-scrambled,images/i24.bmp,images/INVk24.bmp,,,,,0,68,68,46,,,,,,,right,0,left,0.534276008606,2016_Aug_24_1628,59.9268471105,Gestalt_exp1,001,18460,
,Gestalt-scrambled,images/i05.bmp,images/k05.bmp,,,,,0,69,69,4,,,,,,,right,1,right,0.250462055206,2016_Aug_24_1628,59.9268471105,Gestalt_exp1,001,18460,
,Inverted-scrambled,images/i09.bmp,images/INVk09.bmp,,,,,0,70,70,35,,,,,,,left,0,right,0.467036962509,2016_Aug_24_1628,59.9268471105,Gestalt_exp1,001,18460,
,Gestalt-scrambled,images/i22.bmp,images/k22.bmp,,,,,0,71,71,21,,,,,,,right,0,left,0.133541822433,2016_Aug_24_1628,59.9268471105,Gestalt_exp1,001,18460,
,Inverted-Gestalt,images/k29.bmp,images/INVk29.bmp,,,,,0,72,72,74,,,,,,,right,1,right,0.333289861679,2016_Aug_24_1628,59.9268471105,Gestalt_exp1,001,18460,
,Inverted-Gestalt,images/k12.bmp,images/INVk12.bmp,,,,,0,73,73,60,,,,,,,right,0,left,0.183442831039,2016_Aug_24_1628,59.9268471105,Gestalt_exp1,001,18460,
,Gestalt-scrambled,images/i15.bmp,images/k15.bmp,,,,,0,74,74,14,,,,,,,right,0,left,0.283341884613,2016_Aug_24_1628,59.9268471105,Gestalt_exp1,001,18460,
,Gestalt-scrambled,images/i07.bmp,images/k07.bmp,,,,,0,75,75,6,,,,,,,left,0,right,0.0835409164429,2016_Aug_24_1628,59.9268471105,Gestalt_exp1,001,18460,
