images,condition,imgB,imgA,trials.thisRepN,trials.thisTrialN,trials.thisN,trials.thisIndex,numLoop.thisRepN,numLoop.thisTrialN,numLoop.thisN,numLoop.thisIndex,response.keys,response.rt,rating.response,rating.rt,key_resp_2.keys,key_resp_2.rt,numResp.keys,numResp.corr,numResp.Alocation,numResp.rt,date,frameRate,expName,session,participant,
,,,,,,,,,,,,space,56.6062500477,,,,,,,,,2016_Apr_21_1208,60.2507825283,Gestalt_exp1,001,19201,
images/i02.bmp,scrambled,,,0,0,0,31,,,,,,,1,8.919,,,,,,,2016_Apr_21_1208,60.2507825283,Gestalt_exp1,001,19201,
images/i23.bmp,scrambled,,,0,1,1,52,,,,,,,1,3.534,,,,,,,2016_Apr_21_1208,60.2507825283,Gestalt_exp1,001,19201,
images/INVk10.bmp,inverted,,,0,2,2,66,,,,,,,1,3.719,,,,,,,2016_Apr_21_1208,60.2507825283,Gestalt_exp1,001,19201,
images/k08.bmp,gestalt,,,0,3,3,7,,,,,,,2,4.403,,,,,,,2016_Apr_21_1208,60.2507825283,Gestalt_exp1,001,19201,
images/i21.bmp,scrambled,,,0,4,4,50,,,,,,,3,2.069,,,,,,,2016_Apr_21_1208,60.2507825283,Gestalt_exp1,001,19201,
images/k05.bmp,gestalt,,,0,5,5,4,,,,,,,1,1.619,,,,,,,2016_Apr_21_1208,60.2507825283,Gestalt_exp1,001,19201,
images/i18.bmp,scrambled,,,0,6,6,47,,,,,,,3,1.852,,,,,,,2016_Apr_21_1208,60.2507825283,Gestalt_exp1,001,19201,
images/k07.bmp,gestalt,,,0,7,7,6,,,,,,,1,1.919,,,,,,,2016_Apr_21_1208,60.2507825283,Gestalt_exp1,001,19201,
images/k16.bmp,gestalt,,,0,8,8,15,,,,,,,3,2.452,,,,,,,2016_Apr_21_1208,60.2507825283,Gestalt_exp1,001,19201,
images/k14.bmp,gestalt,,,0,9,9,13,,,,,,,1,1.802,,,,,,,2016_Apr_21_1208,60.2507825283,Gestalt_exp1,001,19201,
images/k03.bmp,gestalt,,,0,10,10,2,,,,,,,2,1.519,,,,,,,2016_Apr_21_1208,60.2507825283,Gestalt_exp1,001,19201,
images/i15.bmp,scrambled,,,0,11,11,44,,,,,,,3,2.302,,,,,,,2016_Apr_21_1208,60.2507825283,Gestalt_exp1,001,19201,
images/INVk21.bmp,inverted,,,0,12,12,73,,,,,,,3,1.418,,,,,,,2016_Apr_21_1208,60.2507825283,Gestalt_exp1,001,19201,
images/i03.bmp,scrambled,,,0,13,13,32,,,,,,,3,1.952,,,,,,,2016_Apr_21_1208,60.2507825283,Gestalt_exp1,001,19201,
images/k06.bmp,gestalt,,,0,14,14,5,,,,,,,2,1.569,,,,,,,2016_Apr_21_1208,60.2507825283,Gestalt_exp1,001,19201,
images/i22.bmp,scrambled,,,0,15,15,51,,,,,,,6,2.085,,,,,,,2016_Apr_21_1208,60.2507825283,Gestalt_exp1,001,19201,
images/INVk23.bmp,inverted,,,0,16,16,75,,,,,,,3,1.902,,,,,,,2016_Apr_21_1208,60.2507825283,Gestalt_exp1,001,19201,
images/k20.bmp,gestalt,,,0,17,17,19,,,,,,,2,1.452,,,,,,,2016_Apr_21_1208,60.2507825283,Gestalt_exp1,001,19201,
images/i28.bmp,scrambled,,,0,18,18,57,,,,,,,2,10.552,,,,,,,2016_Apr_21_1208,60.2507825283,Gestalt_exp1,001,19201,
images/i24.bmp,scrambled,,,0,19,19,53,,,,,,,3,1.685,,,,,,,2016_Apr_21_1208,60.2507825283,Gestalt_exp1,001,19201,
images/k09.bmp,gestalt,,,0,20,20,8,,,,,,,1,2.368,,,,,,,2016_Apr_21_1208,60.2507825283,Gestalt_exp1,001,19201,
images/i25.bmp,scrambled,,,0,21,21,54,,,,,,,3,1.419,,,,,,,2016_Apr_21_1208,60.2507825283,Gestalt_exp1,001,19201,
images/INVk01.bmp,inverted,,,0,22,22,60,,,,,,,2,1.902,,,,,,,2016_Apr_21_1208,60.2507825283,Gestalt_exp1,001,19201,
images/INVk14.bmp,inverted,,,0,23,23,68,,,,,,,3,1.868,,,,,,,2016_Apr_21_1208,60.2507825283,Gestalt_exp1,001,19201,
images/k10.bmp,gestalt,,,0,24,24,9,,,,,,,1,1.952,,,,,,,2016_Apr_21_1208,60.2507825283,Gestalt_exp1,001,19201,
images/k25.bmp,gestalt,,,0,25,25,24,,,,,,,1,1.668,,,,,,,2016_Apr_21_1208,60.2507825283,Gestalt_exp1,001,19201,
images/i27.bmp,scrambled,,,0,26,26,56,,,,,,,3,1.336,,,,,,,2016_Apr_21_1208,60.2507825283,Gestalt_exp1,001,19201,
images/INVk05.bmp,inverted,,,0,27,27,63,,,,,,,1,1.752,,,,,,,2016_Apr_21_1208,60.2507825283,Gestalt_exp1,001,19201,
images/k21.bmp,gestalt,,,0,28,28,20,,,,,,,2,1.934,,,,,,,2016_Apr_21_1208,60.2507825283,Gestalt_exp1,001,19201,
images/i09.bmp,scrambled,,,0,29,29,38,,,,,,,3,1.268,,,,,,,2016_Apr_21_1208,60.2507825283,Gestalt_exp1,001,19201,
images/INVk16.bmp,inverted,,,0,30,30,70,,,,,,,3,1.335,,,,,,,2016_Apr_21_1208,60.2507825283,Gestalt_exp1,001,19201,
images/INVk24.bmp,inverted,,,0,31,31,76,,,,,,,3,1.836,,,,,,,2016_Apr_21_1208,60.2507825283,Gestalt_exp1,001,19201,
images/i06.bmp,scrambled,,,0,32,32,35,,,,,,,4,2.535,,,,,,,2016_Apr_21_1208,60.2507825283,Gestalt_exp1,001,19201,
images/k19.bmp,gestalt,,,0,33,33,18,,,,,,,4,1.719,,,,,,,2016_Apr_21_1208,60.2507825283,Gestalt_exp1,001,19201,
images/INVk22.bmp,inverted,,,0,34,34,74,,,,,,,4,1.219,,,,,,,2016_Apr_21_1208,60.2507825283,Gestalt_exp1,001,19201,
images/INVk09.bmp,inverted,,,0,35,35,65,,,,,,,1,1.736,,,,,,,2016_Apr_21_1208,60.2507825283,Gestalt_exp1,001,19201,
images/INVk27.bmp,inverted,,,0,36,36,79,,,,,,,3,2.385,,,,,,,2016_Apr_21_1208,60.2507825283,Gestalt_exp1,001,19201,
images/i11.bmp,scrambled,,,0,37,37,40,,,,,,,2,1.419,,,,,,,2016_Apr_21_1208,60.2507825283,Gestalt_exp1,001,19201,
images/i16.bmp,scrambled,,,0,38,38,45,,,,,,,4,1.618,,,,,,,2016_Apr_21_1208,60.2507825283,Gestalt_exp1,001,19201,
images/i04.bmp,scrambled,,,0,39,39,33,,,,,,,2,1.152,,,,,,,2016_Apr_21_1208,60.2507825283,Gestalt_exp1,001,19201,
images/i19.bmp,scrambled,,,0,40,40,48,,,,,,,2,1.219,,,,,,,2016_Apr_21_1208,60.2507825283,Gestalt_exp1,001,19201,
images/k04.bmp,gestalt,,,0,41,41,3,,,,,,,1,1.468,,,,,,,2016_Apr_21_1208,60.2507825283,Gestalt_exp1,001,19201,
images/i07.bmp,scrambled,,,0,42,42,36,,,,,,,2,1.085,,,,,,,2016_Apr_21_1208,60.2507825283,Gestalt_exp1,001,19201,
images/k02.bmp,gestalt,,,0,43,43,1,,,,,,,1,1.934,,,,,,,2016_Apr_21_1208,60.2507825283,Gestalt_exp1,001,19201,
images/k15.bmp,gestalt,,,0,44,44,14,,,,,,,2,1.602,,,,,,,2016_Apr_21_1208,60.2507825283,Gestalt_exp1,001,19201,
images/INVk19.bmp,inverted,,,0,45,45,72,,,,,,,2,1.351,,,,,,,2016_Apr_21_1208,60.2507825283,Gestalt_exp1,001,19201,
images/i13.bmp,scrambled,,,0,46,46,42,,,,,,,3,1.402,,,,,,,2016_Apr_21_1208,60.2507825283,Gestalt_exp1,001,19201,
images/k28.bmp,gestalt,,,0,47,47,27,,,,,,,3,1.102,,,,,,,2016_Apr_21_1208,60.2507825283,Gestalt_exp1,001,19201,
images/k29.bmp,gestalt,,,0,48,48,28,,,,,,,3,1.669,,,,,,,2016_Apr_21_1208,60.2507825283,Gestalt_exp1,001,19201,
images/k12.bmp,gestalt,,,0,49,49,11,,,,,,,1,2.002,,,,,,,2016_Apr_21_1208,60.2507825283,Gestalt_exp1,001,19201,
images/k18.bmp,gestalt,,,0,50,50,17,,,,,,,3,1.468,,,,,,,2016_Apr_21_1208,60.2507825283,Gestalt_exp1,001,19201,
images/INVk25.bmp,inverted,,,0,51,51,77,,,,,,,2,1.235,,,,,,,2016_Apr_21_1208,60.2507825283,Gestalt_exp1,001,19201,
images/i20.bmp,scrambled,,,0,52,52,49,,,,,,,3,1.319,,,,,,,2016_Apr_21_1208,60.2507825283,Gestalt_exp1,001,19201,
images/INVk12.bmp,inverted,,,0,53,53,67,,,,,,,2,1.602,,,,,,,2016_Apr_21_1208,60.2507825283,Gestalt_exp1,001,19201,
images/i10.bmp,scrambled,,,0,54,54,39,,,,,,,2,1.285,,,,,,,2016_Apr_21_1208,60.2507825283,Gestalt_exp1,001,19201,
images/i30.bmp,scrambled,,,0,55,55,59,,,,,,,4,1.602,,,,,,,2016_Apr_21_1208,60.2507825283,Gestalt_exp1,001,19201,
images/i12.bmp,scrambled,,,0,56,56,41,,,,,,,4,1.019,,,,,,,2016_Apr_21_1208,60.2507825283,Gestalt_exp1,001,19201,
images/i08.bmp,scrambled,,,0,57,57,37,,,,,,,2,1.185,,,,,,,2016_Apr_21_1208,60.2507825283,Gestalt_exp1,001,19201,
images/INVk29.bmp,inverted,,,0,58,58,81,,,,,,,2,1.368,,,,,,,2016_Apr_21_1208,60.2507825283,Gestalt_exp1,001,19201,
images/i17.bmp,scrambled,,,0,59,59,46,,,,,,,2,1.468,,,,,,,2016_Apr_21_1208,60.2507825283,Gestalt_exp1,001,19201,
images/k22.bmp,gestalt,,,0,60,60,21,,,,,,,4,1.619,,,,,,,2016_Apr_21_1208,60.2507825283,Gestalt_exp1,001,19201,
images/i26.bmp,scrambled,,,0,61,61,55,,,,,,,3,1.918,,,,,,,2016_Apr_21_1208,60.2507825283,Gestalt_exp1,001,19201,
images/INVk30.bmp,inverted,,,0,62,62,82,,,,,,,2,1.553,,,,,,,2016_Apr_21_1208,60.2507825283,Gestalt_exp1,001,19201,
images/INVk28.bmp,inverted,,,0,63,63,80,,,,,,,2,1.302,,,,,,,2016_Apr_21_1208,60.2507825283,Gestalt_exp1,001,19201,
images/INVk26.bmp,inverted,,,0,64,64,78,,,,,,,2,1.136,,,,,,,2016_Apr_21_1208,60.2507825283,Gestalt_exp1,001,19201,
images/INVk18.bmp,inverted,,,0,65,65,71,,,,,,,3,1.069,,,,,,,2016_Apr_21_1208,60.2507825283,Gestalt_exp1,001,19201,
images/INVk03.bmp,inverted,,,0,66,66,61,,,,,,,2,1.119,,,,,,,2016_Apr_21_1208,60.2507825283,Gestalt_exp1,001,19201,
images/k26.bmp,gestalt,,,0,67,67,25,,,,,,,2,1.185,,,,,,,2016_Apr_21_1208,60.2507825283,Gestalt_exp1,001,19201,
images/INVk04.bmp,inverted,,,0,68,68,62,,,,,,,2,0.985,,,,,,,2016_Apr_21_1208,60.2507825283,Gestalt_exp1,001,19201,
images/k17.bmp,gestalt,,,0,69,69,16,,,,,,,2,0.935,,,,,,,2016_Apr_21_1208,60.2507825283,Gestalt_exp1,001,19201,
images/k23.bmp,gestalt,,,0,70,70,22,,,,,,,4,1.119,,,,,,,2016_Apr_21_1208,60.2507825283,Gestalt_exp1,001,19201,
images/i05.bmp,scrambled,,,0,71,71,34,,,,,,,2,1.002,,,,,,,2016_Apr_21_1208,60.2507825283,Gestalt_exp1,001,19201,
images/k13.bmp,gestalt,,,0,72,72,12,,,,,,,2,1.068,,,,,,,2016_Apr_21_1208,60.2507825283,Gestalt_exp1,001,19201,
images/INVk06.bmp,inverted,,,0,73,73,64,,,,,,,1,1.152,,,,,,,2016_Apr_21_1208,60.2507825283,Gestalt_exp1,001,19201,
images/INVk15.bmp,inverted,,,0,74,74,69,,,,,,,3,1.069,,,,,,,2016_Apr_21_1208,60.2507825283,Gestalt_exp1,001,19201,
images/k01.bmp,gestalt,,,0,75,75,0,,,,,,,2,1.036,,,,,,,2016_Apr_21_1208,60.2507825283,Gestalt_exp1,001,19201,
images/k30.bmp,gestalt,,,0,76,76,29,,,,,,,2,0.852,,,,,,,2016_Apr_21_1208,60.2507825283,Gestalt_exp1,001,19201,
images/i14.bmp,scrambled,,,0,77,77,43,,,,,,,3,0.968,,,,,,,2016_Apr_21_1208,60.2507825283,Gestalt_exp1,001,19201,
images/k11.bmp,gestalt,,,0,78,78,10,,,,,,,1,1.134,,,,,,,2016_Apr_21_1208,60.2507825283,Gestalt_exp1,001,19201,
images/k24.bmp,gestalt,,,0,79,79,23,,,,,,,1,1.536,,,,,,,2016_Apr_21_1208,60.2507825283,Gestalt_exp1,001,19201,
images/k27.bmp,gestalt,,,0,80,80,26,,,,,,,3,1.036,,,,,,,2016_Apr_21_1208,60.2507825283,Gestalt_exp1,001,19201,
images/i29.bmp,scrambled,,,0,81,81,58,,,,,,,5,0.985,,,,,,,2016_Apr_21_1208,60.2507825283,Gestalt_exp1,001,19201,
images/i01.bmp,scrambled,,,0,82,82,30,,,,,,,4,0.835,,,,,,,2016_Apr_21_1208,60.2507825283,Gestalt_exp1,001,19201,
,,,,,,,,,,,,,,,,space,21.5666320324,,,,,2016_Apr_21_1208,60.2507825283,Gestalt_exp1,001,19201,
,Gestalt-scrambled,images/i18.bmp,images/k18.bmp,,,,,0,0,0,17,,,,,,,right,0,left,0.317393064499,2016_Apr_21_1208,60.2507825283,Gestalt_exp1,001,19201,
,Inverted-Gestalt,images/k02.bmp,images/INVk03.bmp,,,,,0,1,1,54,,,,,,,left,0,right,0.116937875748,2016_Apr_21_1208,60.2507825283,Gestalt_exp1,001,19201,
,Gestalt-scrambled,images/i05.bmp,images/k05.bmp,,,,,0,2,2,4,,,,,,,right,1,right,0.21741604805,2016_Apr_21_1208,60.2507825283,Gestalt_exp1,001,19201,
,Gestalt-scrambled,images/i22.bmp,images/k22.bmp,,,,,0,3,3,21,,,,,,,right,1,right,0.100325107574,2016_Apr_21_1208,60.2507825283,Gestalt_exp1,001,19201,
,Inverted-scrambled,images/i02.bmp,images/INVk03.bmp,,,,,0,4,4,31,,,,,,,left,0,right,0.000196933746338,2016_Apr_21_1208,60.2507825283,Gestalt_exp1,001,19201,
,Gestalt-scrambled,images/i03.bmp,images/k03.bmp,,,,,0,5,5,2,,,,,,,right,0,left,2.56664395332,2016_Apr_21_1208,60.2507825283,Gestalt_exp1,001,19201,
,Gestalt-scrambled,images/i15.bmp,images/k15.bmp,,,,,0,6,6,14,,,,,,,left,1,left,0.466130018234,2016_Apr_21_1208,60.2507825283,Gestalt_exp1,001,19201,
,Inverted-scrambled,images/i01.bmp,images/INVk01.bmp,,,,,0,7,7,30,,,,,,,right,1,right,0.266324996948,2016_Apr_21_1208,60.2507825283,Gestalt_exp1,001,19201,
,Gestalt-scrambled,images/i04.bmp,images/k04.bmp,,,,,0,8,8,3,,,,,,,right,0,left,0.216627120972,2016_Apr_21_1208,60.2507825283,Gestalt_exp1,001,19201,
,Gestalt-scrambled,images/i30.bmp,images/k30.bmp,,,,,0,9,9,29,,,,,,,left,0,right,1.50032997131,2016_Apr_21_1208,60.2507825283,Gestalt_exp1,001,19201,
,Inverted-Gestalt,images/k09.bmp,images/INVk09.bmp,,,,,0,10,10,58,,,,,,,right,0,left,0.317131996155,2016_Apr_21_1208,60.2507825283,Gestalt_exp1,001,19201,
,Gestalt-scrambled,images/i02.bmp,images/k02.bmp,,,,,0,11,11,1,,,,,,,left,0,right,0.367109060287,2016_Apr_21_1208,60.2507825283,Gestalt_exp1,001,19201,
,Inverted-Gestalt,images/k26.bmp,images/INVk26.bmp,,,,,0,12,12,71,,,,,,,right,1,right,0.200199127197,2016_Apr_21_1208,60.2507825283,Gestalt_exp1,001,19201,
,Inverted-Gestalt,images/k29.bmp,images/INVk29.bmp,,,,,0,13,13,74,,,,,,,right,0,left,0.400186777115,2016_Apr_21_1208,60.2507825283,Gestalt_exp1,001,19201,
,Gestalt-scrambled,images/i20.bmp,images/k20.bmp,,,,,0,14,14,19,,,,,,,right,1,right,0.082818031311,2016_Apr_21_1208,60.2507825283,Gestalt_exp1,001,19201,
,Inverted-Gestalt,images/k25.bmp,images/INVk25.bmp,,,,,0,15,15,70,,,,,,,right,0,left,0.000225067138672,2016_Apr_21_1208,60.2507825283,Gestalt_exp1,001,19201,
,Inverted-Gestalt,images/k23.bmp,images/INVk23.bmp,,,,,0,16,16,68,,,,,,,left,0,right,0.0168719291687,2016_Apr_21_1208,60.2507825283,Gestalt_exp1,001,19201,
,Inverted-scrambled,images/i21.bmp,images/INVk21.bmp,,,,,0,17,17,43,,,,,,,right,0,left,0.0168309211731,2016_Apr_21_1208,60.2507825283,Gestalt_exp1,001,19201,
,Inverted-scrambled,images/i09.bmp,images/INVk09.bmp,,,,,0,18,18,35,,,,,,,left,0,right,0.183516025543,2016_Apr_21_1208,60.2507825283,Gestalt_exp1,001,19201,
,Inverted-scrambled,images/i25.bmp,images/INVk25.bmp,,,,,0,19,19,47,,,,,,,right,0,left,0.000185012817383,2016_Apr_21_1208,60.2507825283,Gestalt_exp1,001,19201,
,Gestalt-scrambled,images/i29.bmp,images/k29.bmp,,,,,0,20,20,28,,,,,,,right,1,right,0.033301115036,2016_Apr_21_1208,60.2507825283,Gestalt_exp1,001,19201,
,Inverted-Gestalt,images/k27.bmp,images/INVk27.bmp,,,,,0,21,21,72,,,,,,,left,1,left,1.88341212273,2016_Apr_21_1208,60.2507825283,Gestalt_exp1,001,19201,
,Inverted-scrambled,images/i30.bmp,images/INVk30.bmp,,,,,0,22,22,52,,,,,,,left,0,right,0.166653156281,2016_Apr_21_1208,60.2507825283,Gestalt_exp1,001,19201,
,Inverted-scrambled,images/i15.bmp,images/INVk15.bmp,,,,,0,23,23,39,,,,,,,right,0,left,0.0501589775085,2016_Apr_21_1208,60.2507825283,Gestalt_exp1,001,19201,
,Inverted-scrambled,images/i27.bmp,images/INVk27.bmp,,,,,0,24,24,49,,,,,,,left,1,left,0.300203800201,2016_Apr_21_1208,60.2507825283,Gestalt_exp1,001,19201,
,Gestalt-scrambled,images/i01.bmp,images/k01.bmp,,,,,0,25,25,0,,,,,,,right,1,right,0.0666561126709,2016_Apr_21_1208,60.2507825283,Gestalt_exp1,001,19201,
,Inverted-scrambled,images/i05.bmp,images/INVk05.bmp,,,,,0,26,26,33,,,,,,,right,0,left,0.0835609436035,2016_Apr_21_1208,60.2507825283,Gestalt_exp1,001,19201,
,Gestalt-scrambled,images/i19.bmp,images/k19.bmp,,,,,0,27,27,18,,,,,,,right,0,left,0.200759887695,2016_Apr_21_1208,60.2507825283,Gestalt_exp1,001,19201,
,Inverted-scrambled,images/i04.bmp,images/INVk04.bmp,,,,,0,28,28,32,,,,,,,right,0,left,0.100090026855,2016_Apr_21_1208,60.2507825283,Gestalt_exp1,001,19201,
,Inverted-Gestalt,images/k24.bmp,images/INVk24.bmp,,,,,0,29,29,69,,,,,,,left,0,right,0.134094953537,2016_Apr_21_1208,60.2507825283,Gestalt_exp1,001,19201,
,Gestalt-scrambled,images/i21.bmp,images/k21.bmp,,,,,0,30,30,20,,,,,,,right,0,left,0.0169479846954,2016_Apr_21_1208,60.2507825283,Gestalt_exp1,001,19201,
,Gestalt-scrambled,images/i13.bmp,images/k13.bmp,,,,,0,31,31,12,,,,,,,left,0,right,0.0666689872742,2016_Apr_21_1208,60.2507825283,Gestalt_exp1,001,19201,
,Inverted-Gestalt,images/k06.bmp,images/INVk06.bmp,,,,,0,32,32,57,,,,,,,right,1,right,0.0668299198151,2016_Apr_21_1208,60.2507825283,Gestalt_exp1,001,19201,
,Gestalt-scrambled,images/i24.bmp,images/k24.bmp,,,,,0,33,33,23,,,,,,,left,0,right,0.149989128113,2016_Apr_21_1208,60.2507825283,Gestalt_exp1,001,19201,
,Inverted-Gestalt,images/k22.bmp,images/INVk22.bmp,,,,,0,34,34,67,,,,,,,right,1,right,0.000211954116821,2016_Apr_21_1208,60.2507825283,Gestalt_exp1,001,19201,
,Inverted-Gestalt,images/k28.bmp,images/INVk28.bmp,,,,,0,35,35,73,,,,,,,left,0,right,0.18371295929,2016_Apr_21_1208,60.2507825283,Gestalt_exp1,001,19201,
,Gestalt-scrambled,images/i28.bmp,images/k28.bmp,,,,,0,36,36,27,,,,,,,right,1,right,0.116803884506,2016_Apr_21_1208,60.2507825283,Gestalt_exp1,001,19201,
,Inverted-Gestalt,images/k16.bmp,images/INVk16.bmp,,,,,0,37,37,63,,,,,,,left,1,left,2.21780109406,2016_Apr_21_1208,60.2507825283,Gestalt_exp1,001,19201,
,Inverted-scrambled,images/i06.bmp,images/INVk06.bmp,,,,,0,38,38,34,,,,,,,left,0,right,0.133442878723,2016_Apr_21_1208,60.2507825283,Gestalt_exp1,001,19201,
,Gestalt-scrambled,images/i27.bmp,images/k27.bmp,,,,,0,39,39,26,,,,,,,left,0,right,0.0668439865112,2016_Apr_21_1208,60.2507825283,Gestalt_exp1,001,19201,
,Inverted-Gestalt,images/k12.bmp,images/INVk12.bmp,,,,,0,40,40,60,,,,,,,right,0,left,0.0666749477386,2016_Apr_21_1208,60.2507825283,Gestalt_exp1,001,19201,
,Gestalt-scrambled,images/i14.bmp,images/k14.bmp,,,,,0,41,41,13,,,,,,,left,0,right,0.100424051285,2016_Apr_21_1208,60.2507825283,Gestalt_exp1,001,19201,
,Inverted-scrambled,images/i14.bmp,images/INVk14.bmp,,,,,0,42,42,38,,,,,,,right,1,right,0.0167989730835,2016_Apr_21_1208,60.2507825283,Gestalt_exp1,001,19201,
,Inverted-scrambled,images/i23.bmp,images/INVk23.bmp,,,,,0,43,43,45,,,,,,,right,0,left,2.29999804497,2016_Apr_21_1208,60.2507825283,Gestalt_exp1,001,19201,
,Inverted-Gestalt,images/k10.bmp,images/INVk10.bmp,,,,,0,44,44,59,,,,,,,right,0,left,0.216112136841,2016_Apr_21_1208,60.2507825283,Gestalt_exp1,001,19201,
,Inverted-scrambled,images/i22.bmp,images/INVk22.bmp,,,,,0,45,45,44,,,,,,,right,1,right,0.200188875198,2016_Apr_21_1208,60.2507825283,Gestalt_exp1,001,19201,
,Gestalt-scrambled,images/i23.bmp,images/k23.bmp,,,,,0,46,46,22,,,,,,,left,1,left,0.166108846664,2016_Apr_21_1208,60.2507825283,Gestalt_exp1,001,19201,
,Gestalt-scrambled,images/i12.bmp,images/k12.bmp,,,,,0,47,47,11,,,,,,,left,0,right,0.183501005173,2016_Apr_21_1208,60.2507825283,Gestalt_exp1,001,19201,
,Inverted-Gestalt,images/k30.bmp,images/INVk30.bmp,,,,,0,48,48,75,,,,,,,right,0,left,0.0666379928589,2016_Apr_21_1208,60.2507825283,Gestalt_exp1,001,19201,
,Gestalt-scrambled,images/i25.bmp,images/k25.bmp,,,,,0,49,49,24,,,,,,,right,1,right,0.0160989761353,2016_Apr_21_1208,60.2507825283,Gestalt_exp1,001,19201,
,Inverted-Gestalt,images/k01.bmp,images/INVk01.bmp,,,,,0,50,50,53,,,,,,,left,1,left,0.000198125839233,2016_Apr_21_1208,60.2507825283,Gestalt_exp1,001,19201,
,Gestalt-scrambled,images/i06.bmp,images/k06.bmp,,,,,0,51,51,5,,,,,,,left,0,right,0.100234031677,2016_Apr_21_1208,60.2507825283,Gestalt_exp1,001,19201,
,Gestalt-scrambled,images/i07.bmp,images/k07.bmp,,,,,0,52,52,6,,,,,,,right,1,right,0.0503489971161,2016_Apr_21_1208,60.2507825283,Gestalt_exp1,001,19201,
,Inverted-Gestalt,images/k04.bmp,images/INVk04.bmp,,,,,0,53,53,55,,,,,,,right,0,left,0.100735902786,2016_Apr_21_1208,60.2507825283,Gestalt_exp1,001,19201,
,Gestalt-scrambled,images/i17.bmp,images/k17.bmp,,,,,0,54,54,16,,,,,,,right,1,right,0.0167717933655,2016_Apr_21_1208,60.2507825283,Gestalt_exp1,001,19201,
,Inverted-scrambled,images/i29.bmp,images/INVk29.bmp,,,,,0,55,55,51,,,,,,,left,0,right,1.96664690971,2016_Apr_21_1208,60.2507825283,Gestalt_exp1,001,19201,
,Gestalt-scrambled,images/i09.bmp,images/k09.bmp,,,,,0,56,56,8,,,,,,,left,0,right,0.26608300209,2016_Apr_21_1208,60.2507825283,Gestalt_exp1,001,19201,
,Gestalt-scrambled,images/i26.bmp,images/k26.bmp,,,,,0,57,57,25,,,,,,,left,0,right,0.26682305336,2016_Apr_21_1208,60.2507825283,Gestalt_exp1,001,19201,
,Inverted-Gestalt,images/k14.bmp,images/INVk14.bmp,,,,,0,58,58,61,,,,,,,right,0,left,0.0168631076813,2016_Apr_21_1208,60.2507825283,Gestalt_exp1,001,19201,
,Inverted-Gestalt,images/k21.bmp,images/INVk21.bmp,,,,,0,59,59,66,,,,,,,right,0,left,0.100178956985,2016_Apr_21_1208,60.2507825283,Gestalt_exp1,001,19201,
,Inverted-scrambled,images/i28.bmp,images/INVk28.bmp,,,,,0,60,60,50,,,,,,,right,1,right,0.11705493927,2016_Apr_21_1208,60.2507825283,Gestalt_exp1,001,19201,
,Gestalt-scrambled,images/i08.bmp,images/k08.bmp,,,,,0,61,61,7,,,,,,,right,1,right,0.0335450172424,2016_Apr_21_1208,60.2507825283,Gestalt_exp1,001,19201,
,Inverted-scrambled,images/i16.bmp,images/INVk16.bmp,,,,,0,62,62,40,,,,,,,left,1,left,0.000191926956177,2016_Apr_21_1208,60.2507825283,Gestalt_exp1,001,19201,
,Inverted-scrambled,images/i10.bmp,images/INVk10.bmp,,,,,0,63,63,36,,,,,,,right,0,left,0.03355717659,2016_Apr_21_1208,60.2507825283,Gestalt_exp1,001,19201,
,Inverted-Gestalt,images/k18.bmp,images/INVk18.bmp,,,,,0,64,64,64,,,,,,,right,0,left,0.099662065506,2016_Apr_21_1208,60.2507825283,Gestalt_exp1,001,19201,
,Inverted-Gestalt,images/k15.bmp,images/INVk15.bmp,,,,,0,65,65,62,,,,,,,left,1,left,0.150423049927,2016_Apr_21_1208,60.2507825283,Gestalt_exp1,001,19201,
,Inverted-scrambled,images/i19.bmp,images/INVk19.bmp,,,,,0,66,66,42,,,,,,,right,0,left,0.0326919555664,2016_Apr_21_1208,60.2507825283,Gestalt_exp1,001,19201,
,Inverted-Gestalt,images/k19.bmp,images/INVk19.bmp,,,,,0,67,67,65,,,,,,,right,1,right,0.183279037476,2016_Apr_21_1208,60.2507825283,Gestalt_exp1,001,19201,
,Inverted-scrambled,images/i24.bmp,images/INVk24.bmp,,,,,0,68,68,46,,,,,,,left,0,right,0.0168459415436,2016_Apr_21_1208,60.2507825283,Gestalt_exp1,001,19201,
,Inverted-scrambled,images/i12.bmp,images/INVk12.bmp,,,,,0,69,69,37,,,,,,,right,0,left,0.200180053711,2016_Apr_21_1208,60.2507825283,Gestalt_exp1,001,19201,
,Inverted-scrambled,images/i18.bmp,images/INVk18.bmp,,,,,0,70,70,41,,,,,,,right,0,left,0.0501239299774,2016_Apr_21_1208,60.2507825283,Gestalt_exp1,001,19201,
,Gestalt-scrambled,images/i10.bmp,images/k10.bmp,,,,,0,71,71,9,,,,,,,right,1,right,0.083536863327,2016_Apr_21_1208,60.2507825283,Gestalt_exp1,001,19201,
,Gestalt-scrambled,images/i11.bmp,images/k11.bmp,,,,,0,72,72,10,,,,,,,left,1,left,0.149966001511,2016_Apr_21_1208,60.2507825283,Gestalt_exp1,001,19201,
,Inverted-scrambled,images/i26.bmp,images/INVk26.bmp,,,,,0,73,73,48,,,,,,,right,0,left,0.100159883499,2016_Apr_21_1208,60.2507825283,Gestalt_exp1,001,19201,
,Inverted-Gestalt,images/k05.bmp,images/INVk05.bmp,,,,,0,74,74,56,,,,,,,left,1,left,0.0333218574524,2016_Apr_21_1208,60.2507825283,Gestalt_exp1,001,19201,
,Gestalt-scrambled,images/i16.bmp,images/k16.bmp,,,,,0,75,75,15,,,,,,,right,0,left,0.0170781612396,2016_Apr_21_1208,60.2507825283,Gestalt_exp1,001,19201,
