images,condition,imgB,imgA,trials.thisRepN,trials.thisTrialN,trials.thisN,trials.thisIndex,numLoop.thisRepN,numLoop.thisTrialN,numLoop.thisN,numLoop.thisIndex,response.keys,response.rt,rating.response,rating.rt,key_resp_2.keys,key_resp_2.rt,numResp.keys,numResp.corr,numResp.Alocation,numResp.rt,date,frameRate,expName,session,participant,
,,,,,,,,,,,,space,66.0167140961,,,,,,,,,2016_Sep_26_1604,59.9215390462,Gestalt_exp1,001,22333,
images/i27.bmp,scrambled,,,0,0,0,56,,,,,,,6,8.585,,,,,,,2016_Sep_26_1604,59.9215390462,Gestalt_exp1,001,22333,
images/k30.bmp,gestalt,,,0,1,1,29,,,,,,,5,6.252,,,,,,,2016_Sep_26_1604,59.9215390462,Gestalt_exp1,001,22333,
images/k01.bmp,gestalt,,,0,2,2,0,,,,,,,6,5.402,,,,,,,2016_Sep_26_1604,59.9215390462,Gestalt_exp1,001,22333,
images/i11.bmp,scrambled,,,0,3,3,40,,,,,,,3,5.151,,,,,,,2016_Sep_26_1604,59.9215390462,Gestalt_exp1,001,22333,
images/INVk30.bmp,inverted,,,0,4,4,82,,,,,,,7,5.336,,,,,,,2016_Sep_26_1604,59.9215390462,Gestalt_exp1,001,22333,
images/k04.bmp,gestalt,,,0,5,5,3,,,,,,,8,4.169,,,,,,,2016_Sep_26_1604,59.9215390462,Gestalt_exp1,001,22333,
images/INVk18.bmp,inverted,,,0,6,6,71,,,,,,,6,4.67,,,,,,,2016_Sep_26_1604,59.9215390462,Gestalt_exp1,001,22333,
images/i19.bmp,scrambled,,,0,7,7,48,,,,,,,7,4.685,,,,,,,2016_Sep_26_1604,59.9215390462,Gestalt_exp1,001,22333,
images/k13.bmp,gestalt,,,0,8,8,12,,,,,,,8,4.236,,,,,,,2016_Sep_26_1604,59.9215390462,Gestalt_exp1,001,22333,
images/INVk29.bmp,inverted,,,0,9,9,81,,,,,,,6,4.969,,,,,,,2016_Sep_26_1604,59.9215390462,Gestalt_exp1,001,22333,
images/INVk22.bmp,inverted,,,0,10,10,74,,,,,,,3,4.086,,,,,,,2016_Sep_26_1604,59.9215390462,Gestalt_exp1,001,22333,
images/k07.bmp,gestalt,,,0,11,11,6,,,,,,,2,3.852,,,,,,,2016_Sep_26_1604,59.9215390462,Gestalt_exp1,001,22333,
images/i18.bmp,scrambled,,,0,12,12,47,,,,,,,4,5.152,,,,,,,2016_Sep_26_1604,59.9215390462,Gestalt_exp1,001,22333,
images/i12.bmp,scrambled,,,0,13,13,41,,,,,,,8,3.018,,,,,,,2016_Sep_26_1604,59.9215390462,Gestalt_exp1,001,22333,
images/k29.bmp,gestalt,,,0,14,14,28,,,,,,,7,4.519,,,,,,,2016_Sep_26_1604,59.9215390462,Gestalt_exp1,001,22333,
images/i21.bmp,scrambled,,,0,15,15,50,,,,,,,5,3.268,,,,,,,2016_Sep_26_1604,59.9215390462,Gestalt_exp1,001,22333,
images/INVk25.bmp,inverted,,,0,16,16,77,,,,,,,7,6.685,,,,,,,2016_Sep_26_1604,59.9215390462,Gestalt_exp1,001,22333,
images/i04.bmp,scrambled,,,0,17,17,33,,,,,,,3,4.552,,,,,,,2016_Sep_26_1604,59.9215390462,Gestalt_exp1,001,22333,
images/k15.bmp,gestalt,,,0,18,18,14,,,,,,,6,16.885,,,,,,,2016_Sep_26_1604,59.9215390462,Gestalt_exp1,001,22333,
images/k10.bmp,gestalt,,,0,19,19,9,,,,,,,4,3.319,,,,,,,2016_Sep_26_1604,59.9215390462,Gestalt_exp1,001,22333,
images/INVk24.bmp,inverted,,,0,20,20,76,,,,,,,6,2.919,,,,,,,2016_Sep_26_1604,59.9215390462,Gestalt_exp1,001,22333,
images/k14.bmp,gestalt,,,0,21,21,13,,,,,,,8,2.535,,,,,,,2016_Sep_26_1604,59.9215390462,Gestalt_exp1,001,22333,
images/k02.bmp,gestalt,,,0,22,22,1,,,,,,,6,2.852,,,,,,,2016_Sep_26_1604,59.9215390462,Gestalt_exp1,001,22333,
images/k27.bmp,gestalt,,,0,23,23,26,,,,,,,3,2.002,,,,,,,2016_Sep_26_1604,59.9215390462,Gestalt_exp1,001,22333,
images/INVk16.bmp,inverted,,,0,24,24,70,,,,,,,2,2.802,,,,,,,2016_Sep_26_1604,59.9215390462,Gestalt_exp1,001,22333,
images/i10.bmp,scrambled,,,0,25,25,39,,,,,,,4,2.452,,,,,,,2016_Sep_26_1604,59.9215390462,Gestalt_exp1,001,22333,
images/i14.bmp,scrambled,,,0,26,26,43,,,,,,,7,2.486,,,,,,,2016_Sep_26_1604,59.9215390462,Gestalt_exp1,001,22333,
images/INVk04.bmp,inverted,,,0,27,27,62,,,,,,,7,3.335,,,,,,,2016_Sep_26_1604,59.9215390462,Gestalt_exp1,001,22333,
images/i17.bmp,scrambled,,,0,28,28,46,,,,,,,2,1.902,,,,,,,2016_Sep_26_1604,59.9215390462,Gestalt_exp1,001,22333,
images/INVk27.bmp,inverted,,,0,29,29,79,,,,,,,3,2.052,,,,,,,2016_Sep_26_1604,59.9215390462,Gestalt_exp1,001,22333,
images/k21.bmp,gestalt,,,0,30,30,20,,,,,,,4,2.069,,,,,,,2016_Sep_26_1604,59.9215390462,Gestalt_exp1,001,22333,
images/INVk05.bmp,inverted,,,0,31,31,63,,,,,,,7,2.202,,,,,,,2016_Sep_26_1604,59.9215390462,Gestalt_exp1,001,22333,
images/i30.bmp,scrambled,,,0,32,32,59,,,,,,,4,2.219,,,,,,,2016_Sep_26_1604,59.9215390462,Gestalt_exp1,001,22333,
images/i26.bmp,scrambled,,,0,33,33,55,,,,,,,3,2.118,,,,,,,2016_Sep_26_1604,59.9215390462,Gestalt_exp1,001,22333,
images/i23.bmp,scrambled,,,0,34,34,52,,,,,,,3,2.802,,,,,,,2016_Sep_26_1604,59.9215390462,Gestalt_exp1,001,22333,
images/k26.bmp,gestalt,,,0,35,35,25,,,,,,,6,1.952,,,,,,,2016_Sep_26_1604,59.9215390462,Gestalt_exp1,001,22333,
images/k28.bmp,gestalt,,,0,36,36,27,,,,,,,4,2.235,,,,,,,2016_Sep_26_1604,59.9215390462,Gestalt_exp1,001,22333,
images/i20.bmp,scrambled,,,0,37,37,49,,,,,,,5,4.486,,,,,,,2016_Sep_26_1604,59.9215390462,Gestalt_exp1,001,22333,
images/i24.bmp,scrambled,,,0,38,38,53,,,,,,,3,2.502,,,,,,,2016_Sep_26_1604,59.9215390462,Gestalt_exp1,001,22333,
images/INVk23.bmp,inverted,,,0,39,39,75,,,,,,,5,1.903,,,,,,,2016_Sep_26_1604,59.9215390462,Gestalt_exp1,001,22333,
images/INVk06.bmp,inverted,,,0,40,40,64,,,,,,,8,2.318,,,,,,,2016_Sep_26_1604,59.9215390462,Gestalt_exp1,001,22333,
images/i05.bmp,scrambled,,,0,41,41,34,,,,,,,6,2.436,,,,,,,2016_Sep_26_1604,59.9215390462,Gestalt_exp1,001,22333,
images/k03.bmp,gestalt,,,0,42,42,2,,,,,,,4,1.869,,,,,,,2016_Sep_26_1604,59.9215390462,Gestalt_exp1,001,22333,
images/k11.bmp,gestalt,,,0,43,43,10,,,,,,,6,2.536,,,,,,,2016_Sep_26_1604,59.9215390462,Gestalt_exp1,001,22333,
images/k24.bmp,gestalt,,,0,44,44,23,,,,,,,2,1.685,,,,,,,2016_Sep_26_1604,59.9215390462,Gestalt_exp1,001,22333,
images/INVk15.bmp,inverted,,,0,45,45,69,,,,,,,1,1.735,,,,,,,2016_Sep_26_1604,59.9215390462,Gestalt_exp1,001,22333,
images/i01.bmp,scrambled,,,0,46,46,30,,,,,,,1,3.268,,,,,,,2016_Sep_26_1604,59.9215390462,Gestalt_exp1,001,22333,
images/INVk01.bmp,inverted,,,0,47,47,60,,,,,,,3,3.035,,,,,,,2016_Sep_26_1604,59.9215390462,Gestalt_exp1,001,22333,
images/k05.bmp,gestalt,,,0,48,48,4,,,,,,,7,2.253,,,,,,,2016_Sep_26_1604,59.9215390462,Gestalt_exp1,001,22333,
images/i25.bmp,scrambled,,,0,49,49,54,,,,,,,3,3.819,,,,,,,2016_Sep_26_1604,59.9215390462,Gestalt_exp1,001,22333,
images/INVk09.bmp,inverted,,,0,50,50,65,,,,,,,8,2.752,,,,,,,2016_Sep_26_1604,59.9215390462,Gestalt_exp1,001,22333,
images/INVk21.bmp,inverted,,,0,51,51,73,,,,,,,4,2.135,,,,,,,2016_Sep_26_1604,59.9215390462,Gestalt_exp1,001,22333,
images/k20.bmp,gestalt,,,0,52,52,19,,,,,,,6,3.336,,,,,,,2016_Sep_26_1604,59.9215390462,Gestalt_exp1,001,22333,
images/INVk28.bmp,inverted,,,0,53,53,80,,,,,,,8,1.968,,,,,,,2016_Sep_26_1604,59.9215390462,Gestalt_exp1,001,22333,
images/INVk14.bmp,inverted,,,0,54,54,68,,,,,,,7,1.668,,,,,,,2016_Sep_26_1604,59.9215390462,Gestalt_exp1,001,22333,
images/i08.bmp,scrambled,,,0,55,55,37,,,,,,,8,2.052,,,,,,,2016_Sep_26_1604,59.9215390462,Gestalt_exp1,001,22333,
images/INVk19.bmp,inverted,,,0,56,56,72,,,,,,,6,1.534,,,,,,,2016_Sep_26_1604,59.9215390462,Gestalt_exp1,001,22333,
images/k09.bmp,gestalt,,,0,57,57,8,,,,,,,9,3.053,,,,,,,2016_Sep_26_1604,59.9215390462,Gestalt_exp1,001,22333,
images/i09.bmp,scrambled,,,0,58,58,38,,,,,,,7,1.569,,,,,,,2016_Sep_26_1604,59.9215390462,Gestalt_exp1,001,22333,
images/i07.bmp,scrambled,,,0,59,59,36,,,,,,,8,3.47,,,,,,,2016_Sep_26_1604,59.9215390462,Gestalt_exp1,001,22333,
images/i16.bmp,scrambled,,,0,60,60,45,,,,,,,2,1.77,,,,,,,2016_Sep_26_1604,59.9215390462,Gestalt_exp1,001,22333,
images/k18.bmp,gestalt,,,0,61,61,17,,,,,,,4,2.053,,,,,,,2016_Sep_26_1604,59.9215390462,Gestalt_exp1,001,22333,
images/i02.bmp,scrambled,,,0,62,62,31,,,,,,,5,1.652,,,,,,,2016_Sep_26_1604,59.9215390462,Gestalt_exp1,001,22333,
images/k17.bmp,gestalt,,,0,63,63,16,,,,,,,1,2.351,,,,,,,2016_Sep_26_1604,59.9215390462,Gestalt_exp1,001,22333,
images/k19.bmp,gestalt,,,0,64,64,18,,,,,,,3,2.085,,,,,,,2016_Sep_26_1604,59.9215390462,Gestalt_exp1,001,22333,
images/k23.bmp,gestalt,,,0,65,65,22,,,,,,,5,2.085,,,,,,,2016_Sep_26_1604,59.9215390462,Gestalt_exp1,001,22333,
images/i29.bmp,scrambled,,,0,66,66,58,,,,,,,3,3.052,,,,,,,2016_Sep_26_1604,59.9215390462,Gestalt_exp1,001,22333,
images/i06.bmp,scrambled,,,0,67,67,35,,,,,,,4,4.668,,,,,,,2016_Sep_26_1604,59.9215390462,Gestalt_exp1,001,22333,
images/k16.bmp,gestalt,,,0,68,68,15,,,,,,,3,2.451,,,,,,,2016_Sep_26_1604,59.9215390462,Gestalt_exp1,001,22333,
images/i28.bmp,scrambled,,,0,69,69,57,,,,,,,2,2.734,,,,,,,2016_Sep_26_1604,59.9215390462,Gestalt_exp1,001,22333,
images/i15.bmp,scrambled,,,0,70,70,44,,,,,,,7,3.419,,,,,,,2016_Sep_26_1604,59.9215390462,Gestalt_exp1,001,22333,
images/i22.bmp,scrambled,,,0,71,71,51,,,,,,,3,2.335,,,,,,,2016_Sep_26_1604,59.9215390462,Gestalt_exp1,001,22333,
images/k25.bmp,gestalt,,,0,72,72,24,,,,,,,4,1.919,,,,,,,2016_Sep_26_1604,59.9215390462,Gestalt_exp1,001,22333,
images/INVk03.bmp,inverted,,,0,73,73,61,,,,,,,9,2.052,,,,,,,2016_Sep_26_1604,59.9215390462,Gestalt_exp1,001,22333,
images/INVk26.bmp,inverted,,,0,74,74,78,,,,,,,7,3.902,,,,,,,2016_Sep_26_1604,59.9215390462,Gestalt_exp1,001,22333,
images/k22.bmp,gestalt,,,0,75,75,21,,,,,,,3,1.552,,,,,,,2016_Sep_26_1604,59.9215390462,Gestalt_exp1,001,22333,
images/k06.bmp,gestalt,,,0,76,76,5,,,,,,,7,1.286,,,,,,,2016_Sep_26_1604,59.9215390462,Gestalt_exp1,001,22333,
images/INVk10.bmp,inverted,,,0,77,77,66,,,,,,,7,1.47,,,,,,,2016_Sep_26_1604,59.9215390462,Gestalt_exp1,001,22333,
images/k12.bmp,gestalt,,,0,78,78,11,,,,,,,8,1.919,,,,,,,2016_Sep_26_1604,59.9215390462,Gestalt_exp1,001,22333,
images/k08.bmp,gestalt,,,0,79,79,7,,,,,,,9,2.035,,,,,,,2016_Sep_26_1604,59.9215390462,Gestalt_exp1,001,22333,
images/i13.bmp,scrambled,,,0,80,80,42,,,,,,,6,2.402,,,,,,,2016_Sep_26_1604,59.9215390462,Gestalt_exp1,001,22333,
images/i03.bmp,scrambled,,,0,81,81,32,,,,,,,5,2.268,,,,,,,2016_Sep_26_1604,59.9215390462,Gestalt_exp1,001,22333,
images/INVk12.bmp,inverted,,,0,82,82,67,,,,,,,8,2.151,,,,,,,2016_Sep_26_1604,59.9215390462,Gestalt_exp1,001,22333,
,,,,,,,,,,,,,,,,space,15.600246191,,,,,2016_Sep_26_1604,59.9215390462,Gestalt_exp1,001,22333,
,Gestalt-scrambled,images/i30.bmp,images/k30.bmp,,,,,0,0,0,29,,,,,,,left,1,left,5.33327484131,2016_Sep_26_1604,59.9215390462,Gestalt_exp1,001,22333,
,Gestalt-scrambled,images/i24.bmp,images/k24.bmp,,,,,0,1,1,23,,,,,,,right,1,right,1.7666721344,2016_Sep_26_1604,59.9215390462,Gestalt_exp1,001,22333,
,Gestalt-scrambled,images/i28.bmp,images/k28.bmp,,,,,0,2,2,27,,,,,,,right,0,left,0.833729982376,2016_Sep_26_1604,59.9215390462,Gestalt_exp1,001,22333,
,Inverted-scrambled,images/i10.bmp,images/INVk10.bmp,,,,,0,3,3,36,,,,,,,right,1,right,0.33349108696,2016_Sep_26_1604,59.9215390462,Gestalt_exp1,001,22333,
,Gestalt-scrambled,images/i25.bmp,images/k25.bmp,,,,,0,4,4,24,,,,,,,left,1,left,0.466500997543,2016_Sep_26_1604,59.9215390462,Gestalt_exp1,001,22333,
,Gestalt-scrambled,images/i10.bmp,images/k10.bmp,,,,,0,5,5,9,,,,,,,right,1,right,0.583369016647,2016_Sep_26_1604,59.9215390462,Gestalt_exp1,001,22333,
,Gestalt-scrambled,images/i23.bmp,images/k23.bmp,,,,,0,6,6,22,,,,,,,right,0,left,1.71688508987,2016_Sep_26_1604,59.9215390462,Gestalt_exp1,001,22333,
,Inverted-Gestalt,images/k06.bmp,images/INVk06.bmp,,,,,0,7,7,57,,,,,,,right,0,left,2.3168129921,2016_Sep_26_1604,59.9215390462,Gestalt_exp1,001,22333,
,Gestalt-scrambled,images/i14.bmp,images/k14.bmp,,,,,0,8,8,13,,,,,,,right,1,right,0.533515930176,2016_Sep_26_1604,59.9215390462,Gestalt_exp1,001,22333,
,Inverted-scrambled,images/i30.bmp,images/INVk30.bmp,,,,,0,9,9,52,,,,,,,left,0,right,0.46636390686,2016_Sep_26_1604,59.9215390462,Gestalt_exp1,001,22333,
,Inverted-scrambled,images/i02.bmp,images/INVk03.bmp,,,,,0,10,10,31,,,,,,,left,0,right,0.950032949448,2016_Sep_26_1604,59.9215390462,Gestalt_exp1,001,22333,
,Gestalt-scrambled,images/i21.bmp,images/k21.bmp,,,,,0,11,11,20,,,,,,,left,0,right,0.61706495285,2016_Sep_26_1604,59.9215390462,Gestalt_exp1,001,22333,
,Inverted-Gestalt,images/k18.bmp,images/INVk18.bmp,,,,,0,12,12,64,,,,,,,right,0,left,1.00017118454,2016_Sep_26_1604,59.9215390462,Gestalt_exp1,001,22333,
,Gestalt-scrambled,images/i17.bmp,images/k17.bmp,,,,,0,13,13,16,,,,,,,right,1,right,0.950381994247,2016_Sep_26_1604,59.9215390462,Gestalt_exp1,001,22333,
,Gestalt-scrambled,images/i27.bmp,images/k27.bmp,,,,,0,14,14,26,,,,,,,left,0,right,0.633469104767,2016_Sep_26_1604,59.9215390462,Gestalt_exp1,001,22333,
,Inverted-Gestalt,images/k09.bmp,images/INVk09.bmp,,,,,0,15,15,58,,,,,,,left,1,left,0.849466085434,2016_Sep_26_1604,59.9215390462,Gestalt_exp1,001,22333,
,Inverted-Gestalt,images/k15.bmp,images/INVk15.bmp,,,,,0,16,16,62,,,,,,,right,1,right,0.53280210495,2016_Sep_26_1604,59.9215390462,Gestalt_exp1,001,22333,
,Inverted-scrambled,images/i06.bmp,images/INVk06.bmp,,,,,0,17,17,34,,,,,,,right,0,left,1.00011992455,2016_Sep_26_1604,59.9215390462,Gestalt_exp1,001,22333,
,Inverted-Gestalt,images/k14.bmp,images/INVk14.bmp,,,,,0,18,18,61,,,,,,,left,1,left,0.849953889847,2016_Sep_26_1604,59.9215390462,Gestalt_exp1,001,22333,
,Inverted-scrambled,images/i29.bmp,images/INVk29.bmp,,,,,0,19,19,51,,,,,,,left,1,left,0.600162982941,2016_Sep_26_1604,59.9215390462,Gestalt_exp1,001,22333,
,Inverted-Gestalt,images/k22.bmp,images/INVk22.bmp,,,,,0,20,20,67,,,,,,,right,1,right,0.716099977493,2016_Sep_26_1604,59.9215390462,Gestalt_exp1,001,22333,
,Inverted-scrambled,images/i14.bmp,images/INVk14.bmp,,,,,0,21,21,38,,,,,,,right,1,right,0.866781949997,2016_Sep_26_1604,59.9215390462,Gestalt_exp1,001,22333,
,Inverted-scrambled,images/i23.bmp,images/INVk23.bmp,,,,,0,22,22,45,,,,,,,right,1,right,1.01704001427,2016_Sep_26_1604,59.9215390462,Gestalt_exp1,001,22333,
,Gestalt-scrambled,images/i22.bmp,images/k22.bmp,,,,,0,23,23,21,,,,,,,left,0,right,0.23330116272,2016_Sep_26_1604,59.9215390462,Gestalt_exp1,001,22333,
,Inverted-scrambled,images/i05.bmp,images/INVk05.bmp,,,,,0,24,24,33,,,,,,,left,1,left,0.399979829788,2016_Sep_26_1604,59.9215390462,Gestalt_exp1,001,22333,
,Inverted-scrambled,images/i22.bmp,images/INVk22.bmp,,,,,0,25,25,44,,,,,,,left,0,right,0.432704925537,2016_Sep_26_1604,59.9215390462,Gestalt_exp1,001,22333,
,Inverted-Gestalt,images/k05.bmp,images/INVk05.bmp,,,,,0,26,26,56,,,,,,,right,1,right,0.399978160858,2016_Sep_26_1604,59.9215390462,Gestalt_exp1,001,22333,
,Inverted-Gestalt,images/k25.bmp,images/INVk25.bmp,,,,,0,27,27,70,,,,,,,left,1,left,0.383200883865,2016_Sep_26_1604,59.9215390462,Gestalt_exp1,001,22333,
,Inverted-scrambled,images/i04.bmp,images/INVk04.bmp,,,,,0,28,28,32,,,,,,,right,1,right,0.500160932541,2016_Sep_26_1604,59.9215390462,Gestalt_exp1,001,22333,
,Inverted-scrambled,images/i09.bmp,images/INVk09.bmp,,,,,0,29,29,35,,,,,,,left,0,right,0.383502960205,2016_Sep_26_1604,59.9215390462,Gestalt_exp1,001,22333,
,Gestalt-scrambled,images/i09.bmp,images/k09.bmp,,,,,0,30,30,8,,,,,,,left,0,right,0.417042970657,2016_Sep_26_1604,59.9215390462,Gestalt_exp1,001,22333,
,Inverted-scrambled,images/i24.bmp,images/INVk24.bmp,,,,,0,31,31,46,,,,,,,left,0,right,0.450390100479,2016_Sep_26_1604,59.9215390462,Gestalt_exp1,001,22333,
,Inverted-scrambled,images/i16.bmp,images/INVk16.bmp,,,,,0,32,32,40,,,,,,,left,0,right,0.36609005928,2016_Sep_26_1604,59.9215390462,Gestalt_exp1,001,22333,
,Inverted-scrambled,images/i15.bmp,images/INVk15.bmp,,,,,0,33,33,39,,,,,,,right,1,right,0.449435949326,2016_Sep_26_1604,59.9215390462,Gestalt_exp1,001,22333,
,Gestalt-scrambled,images/i05.bmp,images/k05.bmp,,,,,0,34,34,4,,,,,,,right,1,right,1.73325419426,2016_Sep_26_1604,59.9215390462,Gestalt_exp1,001,22333,
,Inverted-Gestalt,images/k16.bmp,images/INVk16.bmp,,,,,0,35,35,63,,,,,,,left,1,left,0.366626024246,2016_Sep_26_1604,59.9215390462,Gestalt_exp1,001,22333,
,Inverted-scrambled,images/i12.bmp,images/INVk12.bmp,,,,,0,36,36,37,,,,,,,left,1,left,1.7668337822,2016_Sep_26_1604,59.9215390462,Gestalt_exp1,001,22333,
,Inverted-scrambled,images/i01.bmp,images/INVk01.bmp,,,,,0,37,37,30,,,,,,,right,0,left,0.166860103607,2016_Sep_26_1604,59.9215390462,Gestalt_exp1,001,22333,
,Inverted-scrambled,images/i27.bmp,images/INVk27.bmp,,,,,0,38,38,49,,,,,,,right,0,left,0.800132989883,2016_Sep_26_1604,59.9215390462,Gestalt_exp1,001,22333,
,Gestalt-scrambled,images/i16.bmp,images/k16.bmp,,,,,0,39,39,15,,,,,,,left,1,left,0.517395973206,2016_Sep_26_1604,59.9215390462,Gestalt_exp1,001,22333,
,Inverted-Gestalt,images/k27.bmp,images/INVk27.bmp,,,,,0,40,40,72,,,,,,,left,0,right,0.883615970612,2016_Sep_26_1604,59.9215390462,Gestalt_exp1,001,22333,
,Gestalt-scrambled,images/i02.bmp,images/k02.bmp,,,,,0,41,41,1,,,,,,,right,1,right,1.10015416145,2016_Sep_26_1604,59.9215390462,Gestalt_exp1,001,22333,
,Inverted-scrambled,images/i18.bmp,images/INVk18.bmp,,,,,0,42,42,41,,,,,,,right,1,right,0.700741052628,2016_Sep_26_1604,59.9215390462,Gestalt_exp1,001,22333,
,Gestalt-scrambled,images/i11.bmp,images/k11.bmp,,,,,0,43,43,10,,,,,,,right,1,right,0.900174856186,2016_Sep_26_1604,59.9215390462,Gestalt_exp1,001,22333,
,Gestalt-scrambled,images/i07.bmp,images/k07.bmp,,,,,0,44,44,6,,,,,,,left,0,right,0.350306034088,2016_Sep_26_1604,59.9215390462,Gestalt_exp1,001,22333,
,Inverted-Gestalt,images/k12.bmp,images/INVk12.bmp,,,,,0,45,45,60,,,,,,,right,1,right,0.784306049347,2016_Sep_26_1604,59.9215390462,Gestalt_exp1,001,22333,
,Gestalt-scrambled,images/i12.bmp,images/k12.bmp,,,,,0,46,46,11,,,,,,,right,0,left,1.05041217804,2016_Sep_26_1604,59.9215390462,Gestalt_exp1,001,22333,
,Inverted-scrambled,images/i21.bmp,images/INVk21.bmp,,,,,0,47,47,43,,,,,,,left,1,left,0.584259033203,2016_Sep_26_1604,59.9215390462,Gestalt_exp1,001,22333,
,Inverted-Gestalt,images/k26.bmp,images/INVk26.bmp,,,,,0,48,48,71,,,,,,,left,1,left,0.56765794754,2016_Sep_26_1604,59.9215390462,Gestalt_exp1,001,22333,
,Inverted-Gestalt,images/k01.bmp,images/INVk01.bmp,,,,,0,49,49,53,,,,,,,right,0,left,0.567653894424,2016_Sep_26_1604,59.9215390462,Gestalt_exp1,001,22333,
,Gestalt-scrambled,images/i03.bmp,images/k03.bmp,,,,,0,50,50,2,,,,,,,right,1,right,0.683568000793,2016_Sep_26_1604,59.9215390462,Gestalt_exp1,001,22333,
,Gestalt-scrambled,images/i01.bmp,images/k01.bmp,,,,,0,51,51,0,,,,,,,right,1,right,0.750400066376,2016_Sep_26_1604,59.9215390462,Gestalt_exp1,001,22333,
,Inverted-Gestalt,images/k21.bmp,images/INVk21.bmp,,,,,0,52,52,66,,,,,,,left,1,left,0.483484983444,2016_Sep_26_1604,59.9215390462,Gestalt_exp1,001,22333,
,Inverted-Gestalt,images/k02.bmp,images/INVk03.bmp,,,,,0,53,53,54,,,,,,,right,1,right,0.166831970215,2016_Sep_26_1604,59.9215390462,Gestalt_exp1,001,22333,
,Inverted-Gestalt,images/k04.bmp,images/INVk04.bmp,,,,,0,54,54,55,,,,,,,right,0,left,0.683478832245,2016_Sep_26_1604,59.9215390462,Gestalt_exp1,001,22333,
,Inverted-Gestalt,images/k28.bmp,images/INVk28.bmp,,,,,0,55,55,73,,,,,,,right,1,right,1.88352489471,2016_Sep_26_1604,59.9215390462,Gestalt_exp1,001,22333,
,Gestalt-scrambled,images/i26.bmp,images/k26.bmp,,,,,0,56,56,25,,,,,,,right,1,right,1.16649007797,2016_Sep_26_1604,59.9215390462,Gestalt_exp1,001,22333,
,Inverted-Gestalt,images/k24.bmp,images/INVk24.bmp,,,,,0,57,57,69,,,,,,,right,0,left,0.616950035095,2016_Sep_26_1604,59.9215390462,Gestalt_exp1,001,22333,
,Gestalt-scrambled,images/i08.bmp,images/k08.bmp,,,,,0,58,58,7,,,,,,,right,1,right,0.850368022919,2016_Sep_26_1604,59.9215390462,Gestalt_exp1,001,22333,
,Gestalt-scrambled,images/i19.bmp,images/k19.bmp,,,,,0,59,59,18,,,,,,,left,0,right,0.400135993958,2016_Sep_26_1604,59.9215390462,Gestalt_exp1,001,22333,
,Gestalt-scrambled,images/i29.bmp,images/k29.bmp,,,,,0,60,60,28,,,,,,,right,1,right,0.766618013382,2016_Sep_26_1604,59.9215390462,Gestalt_exp1,001,22333,
,Gestalt-scrambled,images/i20.bmp,images/k20.bmp,,,,,0,61,61,19,,,,,,,left,0,right,0.200190782547,2016_Sep_26_1604,59.9215390462,Gestalt_exp1,001,22333,
,Inverted-Gestalt,images/k30.bmp,images/INVk30.bmp,,,,,0,62,62,75,,,,,,,left,1,left,0.449949026108,2016_Sep_26_1604,59.9215390462,Gestalt_exp1,001,22333,
,Gestalt-scrambled,images/i15.bmp,images/k15.bmp,,,,,0,63,63,14,,,,,,,left,0,right,0.600193023682,2016_Sep_26_1604,59.9215390462,Gestalt_exp1,001,22333,
,Inverted-Gestalt,images/k29.bmp,images/INVk29.bmp,,,,,0,64,64,74,,,,,,,left,0,right,0.399667978287,2016_Sep_26_1604,59.9215390462,Gestalt_exp1,001,22333,
,Gestalt-scrambled,images/i06.bmp,images/k06.bmp,,,,,0,65,65,5,,,,,,,right,0,left,0.333509922028,2016_Sep_26_1604,59.9215390462,Gestalt_exp1,001,22333,
,Inverted-scrambled,images/i28.bmp,images/INVk28.bmp,,,,,0,66,66,50,,,,,,,left,1,left,0.449476003647,2016_Sep_26_1604,59.9215390462,Gestalt_exp1,001,22333,
,Gestalt-scrambled,images/i18.bmp,images/k18.bmp,,,,,0,67,67,17,,,,,,,left,0,right,0.250004053116,2016_Sep_26_1604,59.9215390462,Gestalt_exp1,001,22333,
,Inverted-scrambled,images/i25.bmp,images/INVk25.bmp,,,,,0,68,68,47,,,,,,,right,0,left,0.734240055084,2016_Sep_26_1604,59.9215390462,Gestalt_exp1,001,22333,
,Inverted-Gestalt,images/k19.bmp,images/INVk19.bmp,,,,,0,69,69,65,,,,,,,right,0,left,0.900166988373,2016_Sep_26_1604,59.9215390462,Gestalt_exp1,001,22333,
,Gestalt-scrambled,images/i13.bmp,images/k13.bmp,,,,,0,70,70,12,,,,,,,left,0,right,0.383194923401,2016_Sep_26_1604,59.9215390462,Gestalt_exp1,001,22333,
,Inverted-scrambled,images/i19.bmp,images/INVk19.bmp,,,,,0,71,71,42,,,,,,,right,0,left,0.133272886276,2016_Sep_26_1604,59.9215390462,Gestalt_exp1,001,22333,
,Gestalt-scrambled,images/i04.bmp,images/k04.bmp,,,,,0,72,72,3,,,,,,,right,1,right,0.600198984146,2016_Sep_26_1604,59.9215390462,Gestalt_exp1,001,22333,
,Inverted-scrambled,images/i26.bmp,images/INVk26.bmp,,,,,0,73,73,48,,,,,,,left,0,right,0.233272075653,2016_Sep_26_1604,59.9215390462,Gestalt_exp1,001,22333,
,Inverted-Gestalt,images/k10.bmp,images/INVk10.bmp,,,,,0,74,74,59,,,,,,,right,0,left,0.566827058792,2016_Sep_26_1604,59.9215390462,Gestalt_exp1,001,22333,
,Inverted-Gestalt,images/k23.bmp,images/INVk23.bmp,,,,,0,75,75,68,,,,,,,left,1,left,0.533681154251,2016_Sep_26_1604,59.9215390462,Gestalt_exp1,001,22333,
