images,condition,imgB,imgA,trials.thisRepN,trials.thisTrialN,trials.thisN,trials.thisIndex,numLoop.thisRepN,numLoop.thisTrialN,numLoop.thisN,numLoop.thisIndex,response.keys,response.rt,rating.response,rating.rt,key_resp_2.keys,key_resp_2.rt,numResp.keys,numResp.corr,numResp.Alocation,numResp.rt,date,frameRate,expName,session,participant,
,,,,,,,,,,,,space,64.0543451309,,,,,,,,,2016_May_04_1404,59.9031393311,Gestalt_exp1,001,23125,
images/INVk16.bmp,inverted,,,0,0,0,70,,,,,,,6,9.802,,,,,,,2016_May_04_1404,59.9031393311,Gestalt_exp1,001,23125,
images/INVk12.bmp,inverted,,,0,1,1,67,,,,,,,2,5.07,,,,,,,2016_May_04_1404,59.9031393311,Gestalt_exp1,001,23125,
images/k07.bmp,gestalt,,,0,2,2,6,,,,,,,3,7.652,,,,,,,2016_May_04_1404,59.9031393311,Gestalt_exp1,001,23125,
images/INVk06.bmp,inverted,,,0,3,3,64,,,,,,,8,2.319,,,,,,,2016_May_04_1404,59.9031393311,Gestalt_exp1,001,23125,
images/k09.bmp,gestalt,,,0,4,4,8,,,,,,,5,3.185,,,,,,,2016_May_04_1404,59.9031393311,Gestalt_exp1,001,23125,
images/i26.bmp,scrambled,,,0,5,5,55,,,,,,,4,2.968,,,,,,,2016_May_04_1404,59.9031393311,Gestalt_exp1,001,23125,
images/k20.bmp,gestalt,,,0,6,6,19,,,,,,,3,2.102,,,,,,,2016_May_04_1404,59.9031393311,Gestalt_exp1,001,23125,
images/i13.bmp,scrambled,,,0,7,7,42,,,,,,,2,3.135,,,,,,,2016_May_04_1404,59.9031393311,Gestalt_exp1,001,23125,
images/i10.bmp,scrambled,,,0,8,8,39,,,,,,,3,3.619,,,,,,,2016_May_04_1404,59.9031393311,Gestalt_exp1,001,23125,
images/k05.bmp,gestalt,,,0,9,9,4,,,,,,,7,3.202,,,,,,,2016_May_04_1404,59.9031393311,Gestalt_exp1,001,23125,
images/i09.bmp,scrambled,,,0,10,10,38,,,,,,,7,1.552,,,,,,,2016_May_04_1404,59.9031393311,Gestalt_exp1,001,23125,
images/INVk23.bmp,inverted,,,0,11,11,75,,,,,,,6,2.269,,,,,,,2016_May_04_1404,59.9031393311,Gestalt_exp1,001,23125,
images/k28.bmp,gestalt,,,0,12,12,27,,,,,,,5,2.919,,,,,,,2016_May_04_1404,59.9031393311,Gestalt_exp1,001,23125,
images/k02.bmp,gestalt,,,0,13,13,1,,,,,,,4,2.835,,,,,,,2016_May_04_1404,59.9031393311,Gestalt_exp1,001,23125,
images/INVk26.bmp,inverted,,,0,14,14,78,,,,,,,2,2.185,,,,,,,2016_May_04_1404,59.9031393311,Gestalt_exp1,001,23125,
images/i07.bmp,scrambled,,,0,15,15,36,,,,,,,3,3.019,,,,,,,2016_May_04_1404,59.9031393311,Gestalt_exp1,001,23125,
images/INVk27.bmp,inverted,,,0,16,16,79,,,,,,,2,2.769,,,,,,,2016_May_04_1404,59.9031393311,Gestalt_exp1,001,23125,
images/i30.bmp,scrambled,,,0,17,17,59,,,,,,,1,2.635,,,,,,,2016_May_04_1404,59.9031393311,Gestalt_exp1,001,23125,
images/k26.bmp,gestalt,,,0,18,18,25,,,,,,,4,2.069,,,,,,,2016_May_04_1404,59.9031393311,Gestalt_exp1,001,23125,
images/k14.bmp,gestalt,,,0,19,19,13,,,,,,,1,2.219,,,,,,,2016_May_04_1404,59.9031393311,Gestalt_exp1,001,23125,
images/k01.bmp,gestalt,,,0,20,20,0,,,,,,,3,2.119,,,,,,,2016_May_04_1404,59.9031393311,Gestalt_exp1,001,23125,
images/k29.bmp,gestalt,,,0,21,21,28,,,,,,,2,1.319,,,,,,,2016_May_04_1404,59.9031393311,Gestalt_exp1,001,23125,
images/i24.bmp,scrambled,,,0,22,22,53,,,,,,,1,1.635,,,,,,,2016_May_04_1404,59.9031393311,Gestalt_exp1,001,23125,
images/i29.bmp,scrambled,,,0,23,23,58,,,,,,,2,1.885,,,,,,,2016_May_04_1404,59.9031393311,Gestalt_exp1,001,23125,
images/i28.bmp,scrambled,,,0,24,24,57,,,,,,,3,4.002,,,,,,,2016_May_04_1404,59.9031393311,Gestalt_exp1,001,23125,
images/i27.bmp,scrambled,,,0,25,25,56,,,,,,,7,2.785,,,,,,,2016_May_04_1404,59.9031393311,Gestalt_exp1,001,23125,
images/INVk29.bmp,inverted,,,0,26,26,81,,,,,,,3,1.836,,,,,,,2016_May_04_1404,59.9031393311,Gestalt_exp1,001,23125,
images/i05.bmp,scrambled,,,0,27,27,34,,,,,,,7,2.619,,,,,,,2016_May_04_1404,59.9031393311,Gestalt_exp1,001,23125,
images/INVk30.bmp,inverted,,,0,28,28,82,,,,,,,2,1.702,,,,,,,2016_May_04_1404,59.9031393311,Gestalt_exp1,001,23125,
images/INVk18.bmp,inverted,,,0,29,29,71,,,,,,,1,2.018,,,,,,,2016_May_04_1404,59.9031393311,Gestalt_exp1,001,23125,
images/i21.bmp,scrambled,,,0,30,30,50,,,,,,,8,1.685,,,,,,,2016_May_04_1404,59.9031393311,Gestalt_exp1,001,23125,
images/INVk09.bmp,inverted,,,0,31,31,65,,,,,,,4,1.619,,,,,,,2016_May_04_1404,59.9031393311,Gestalt_exp1,001,23125,
images/k06.bmp,gestalt,,,0,32,32,5,,,,,,,7,2.835,,,,,,,2016_May_04_1404,59.9031393311,Gestalt_exp1,001,23125,
images/k11.bmp,gestalt,,,0,33,33,10,,,,,,,1,1.586,,,,,,,2016_May_04_1404,59.9031393311,Gestalt_exp1,001,23125,
images/INVk03.bmp,inverted,,,0,34,34,61,,,,,,,4,3.302,,,,,,,2016_May_04_1404,59.9031393311,Gestalt_exp1,001,23125,
images/i08.bmp,scrambled,,,0,35,35,37,,,,,,,7,4.935,,,,,,,2016_May_04_1404,59.9031393311,Gestalt_exp1,001,23125,
images/i20.bmp,scrambled,,,0,36,36,49,,,,,,,2,1.803,,,,,,,2016_May_04_1404,59.9031393311,Gestalt_exp1,001,23125,
images/k25.bmp,gestalt,,,0,37,37,24,,,,,,,2,2.069,,,,,,,2016_May_04_1404,59.9031393311,Gestalt_exp1,001,23125,
images/k21.bmp,gestalt,,,0,38,38,20,,,,,,,4,1.235,,,,,,,2016_May_04_1404,59.9031393311,Gestalt_exp1,001,23125,
images/i01.bmp,scrambled,,,0,39,39,30,,,,,,,2,1.602,,,,,,,2016_May_04_1404,59.9031393311,Gestalt_exp1,001,23125,
images/i04.bmp,scrambled,,,0,40,40,33,,,,,,,3,1.385,,,,,,,2016_May_04_1404,59.9031393311,Gestalt_exp1,001,23125,
images/INVk25.bmp,inverted,,,0,41,41,77,,,,,,,2,3.402,,,,,,,2016_May_04_1404,59.9031393311,Gestalt_exp1,001,23125,
images/i18.bmp,scrambled,,,0,42,42,47,,,,,,,7,2.519,,,,,,,2016_May_04_1404,59.9031393311,Gestalt_exp1,001,23125,
images/k19.bmp,gestalt,,,0,43,43,18,,,,,,,3,1.268,,,,,,,2016_May_04_1404,59.9031393311,Gestalt_exp1,001,23125,
images/i15.bmp,scrambled,,,0,44,44,44,,,,,,,7,1.886,,,,,,,2016_May_04_1404,59.9031393311,Gestalt_exp1,001,23125,
images/INVk14.bmp,inverted,,,0,45,45,68,,,,,,,6,2.952,,,,,,,2016_May_04_1404,59.9031393311,Gestalt_exp1,001,23125,
images/k22.bmp,gestalt,,,0,46,46,21,,,,,,,1,2.069,,,,,,,2016_May_04_1404,59.9031393311,Gestalt_exp1,001,23125,
images/i17.bmp,scrambled,,,0,47,47,46,,,,,,,2,1.602,,,,,,,2016_May_04_1404,59.9031393311,Gestalt_exp1,001,23125,
images/i12.bmp,scrambled,,,0,48,48,41,,,,,,,5,1.819,,,,,,,2016_May_04_1404,59.9031393311,Gestalt_exp1,001,23125,
images/k08.bmp,gestalt,,,0,49,49,7,,,,,,,6,1.652,,,,,,,2016_May_04_1404,59.9031393311,Gestalt_exp1,001,23125,
images/INVk22.bmp,inverted,,,0,50,50,74,,,,,,,3,1.436,,,,,,,2016_May_04_1404,59.9031393311,Gestalt_exp1,001,23125,
images/k10.bmp,gestalt,,,0,51,51,9,,,,,,,3,1.636,,,,,,,2016_May_04_1404,59.9031393311,Gestalt_exp1,001,23125,
images/k13.bmp,gestalt,,,0,52,52,12,,,,,,,6,1.635,,,,,,,2016_May_04_1404,59.9031393311,Gestalt_exp1,001,23125,
images/k24.bmp,gestalt,,,0,53,53,23,,,,,,,1,1.419,,,,,,,2016_May_04_1404,59.9031393311,Gestalt_exp1,001,23125,
images/INVk15.bmp,inverted,,,0,54,54,69,,,,,,,1,1.734,,,,,,,2016_May_04_1404,59.9031393311,Gestalt_exp1,001,23125,
images/k15.bmp,gestalt,,,0,55,55,14,,,,,,,2,1.468,,,,,,,2016_May_04_1404,59.9031393311,Gestalt_exp1,001,23125,
images/INVk21.bmp,inverted,,,0,56,56,73,,,,,,,4,1.736,,,,,,,2016_May_04_1404,59.9031393311,Gestalt_exp1,001,23125,
images/i25.bmp,scrambled,,,0,57,57,54,,,,,,,2,2.735,,,,,,,2016_May_04_1404,59.9031393311,Gestalt_exp1,001,23125,
images/k03.bmp,gestalt,,,0,58,58,2,,,,,,,2,2.385,,,,,,,2016_May_04_1404,59.9031393311,Gestalt_exp1,001,23125,
images/INVk04.bmp,inverted,,,0,59,59,62,,,,,,,4,2.535,,,,,,,2016_May_04_1404,59.9031393311,Gestalt_exp1,001,23125,
images/k04.bmp,gestalt,,,0,60,60,3,,,,,,,2,1.335,,,,,,,2016_May_04_1404,59.9031393311,Gestalt_exp1,001,23125,
images/k30.bmp,gestalt,,,0,61,61,29,,,,,,,3,2.119,,,,,,,2016_May_04_1404,59.9031393311,Gestalt_exp1,001,23125,
images/i22.bmp,scrambled,,,0,62,62,51,,,,,,,4,1.585,,,,,,,2016_May_04_1404,59.9031393311,Gestalt_exp1,001,23125,
images/k18.bmp,gestalt,,,0,63,63,17,,,,,,,5,2.169,,,,,,,2016_May_04_1404,59.9031393311,Gestalt_exp1,001,23125,
images/k16.bmp,gestalt,,,0,64,64,15,,,,,,,2,1.569,,,,,,,2016_May_04_1404,59.9031393311,Gestalt_exp1,001,23125,
images/INVk01.bmp,inverted,,,0,65,65,60,,,,,,,5,2.536,,,,,,,2016_May_04_1404,59.9031393311,Gestalt_exp1,001,23125,
images/INVk05.bmp,inverted,,,0,66,66,63,,,,,,,3,1.736,,,,,,,2016_May_04_1404,59.9031393311,Gestalt_exp1,001,23125,
images/INVk10.bmp,inverted,,,0,67,67,66,,,,,,,2,1.335,,,,,,,2016_May_04_1404,59.9031393311,Gestalt_exp1,001,23125,
images/i02.bmp,scrambled,,,0,68,68,31,,,,,,,4,1.102,,,,,,,2016_May_04_1404,59.9031393311,Gestalt_exp1,001,23125,
images/i19.bmp,scrambled,,,0,69,69,48,,,,,,,2,1.385,,,,,,,2016_May_04_1404,59.9031393311,Gestalt_exp1,001,23125,
images/k23.bmp,gestalt,,,0,70,70,22,,,,,,,5,2.169,,,,,,,2016_May_04_1404,59.9031393311,Gestalt_exp1,001,23125,
images/k12.bmp,gestalt,,,0,71,71,11,,,,,,,4,1.602,,,,,,,2016_May_04_1404,59.9031393311,Gestalt_exp1,001,23125,
images/i11.bmp,scrambled,,,0,72,72,40,,,,,,,2,1.436,,,,,,,2016_May_04_1404,59.9031393311,Gestalt_exp1,001,23125,
images/i06.bmp,scrambled,,,0,73,73,35,,,,,,,5,1.802,,,,,,,2016_May_04_1404,59.9031393311,Gestalt_exp1,001,23125,
images/INVk24.bmp,inverted,,,0,74,74,76,,,,,,,1,1.385,,,,,,,2016_May_04_1404,59.9031393311,Gestalt_exp1,001,23125,
images/i16.bmp,scrambled,,,0,75,75,45,,,,,,,2,1.285,,,,,,,2016_May_04_1404,59.9031393311,Gestalt_exp1,001,23125,
images/i03.bmp,scrambled,,,0,76,76,32,,,,,,,1,1.319,,,,,,,2016_May_04_1404,59.9031393311,Gestalt_exp1,001,23125,
images/i14.bmp,scrambled,,,0,77,77,43,,,,,,,4,0.969,,,,,,,2016_May_04_1404,59.9031393311,Gestalt_exp1,001,23125,
images/INVk28.bmp,inverted,,,0,78,78,80,,,,,,,5,1.97,,,,,,,2016_May_04_1404,59.9031393311,Gestalt_exp1,001,23125,
images/k17.bmp,gestalt,,,0,79,79,16,,,,,,,1,1.185,,,,,,,2016_May_04_1404,59.9031393311,Gestalt_exp1,001,23125,
images/INVk19.bmp,inverted,,,0,80,80,72,,,,,,,4,1.536,,,,,,,2016_May_04_1404,59.9031393311,Gestalt_exp1,001,23125,
images/i23.bmp,scrambled,,,0,81,81,52,,,,,,,6,2.136,,,,,,,2016_May_04_1404,59.9031393311,Gestalt_exp1,001,23125,
images/k27.bmp,gestalt,,,0,82,82,26,,,,,,,6,1.602,,,,,,,2016_May_04_1404,59.9031393311,Gestalt_exp1,001,23125,
,,,,,,,,,,,,,,,,space,79.6166138649,,,,,2016_May_04_1404,59.9031393311,Gestalt_exp1,001,23125,
,Inverted-Gestalt,images/k10.bmp,images/INVk10.bmp,,,,,0,0,0,59,,,,,,,left,0,right,1.98353409767,2016_May_04_1404,59.9031393311,Gestalt_exp1,001,23125,
,Inverted-Gestalt,images/k22.bmp,images/INVk22.bmp,,,,,0,1,1,67,,,,,,,right,1,right,0.33327794075,2016_May_04_1404,59.9031393311,Gestalt_exp1,001,23125,
,Inverted-scrambled,images/i27.bmp,images/INVk27.bmp,,,,,0,2,2,49,,,,,,,right,0,left,0.333707809448,2016_May_04_1404,59.9031393311,Gestalt_exp1,001,23125,
,Inverted-scrambled,images/i09.bmp,images/INVk09.bmp,,,,,0,3,3,35,,,,,,,right,0,left,0.233558177948,2016_May_04_1404,59.9031393311,Gestalt_exp1,001,23125,
,Gestalt-scrambled,images/i18.bmp,images/k18.bmp,,,,,0,4,4,17,,,,,,,left,0,right,0.33330488205,2016_May_04_1404,59.9031393311,Gestalt_exp1,001,23125,
,Gestalt-scrambled,images/i06.bmp,images/k06.bmp,,,,,0,5,5,5,,,,,,,right,1,right,0.500166893005,2016_May_04_1404,59.9031393311,Gestalt_exp1,001,23125,
,Inverted-scrambled,images/i26.bmp,images/INVk26.bmp,,,,,0,6,6,48,,,,,,,right,0,left,0.349419116974,2016_May_04_1404,59.9031393311,Gestalt_exp1,001,23125,
,Inverted-scrambled,images/i19.bmp,images/INVk19.bmp,,,,,0,7,7,42,,,,,,,left,0,right,0.634083032608,2016_May_04_1404,59.9031393311,Gestalt_exp1,001,23125,
,Inverted-Gestalt,images/k25.bmp,images/INVk25.bmp,,,,,0,8,8,70,,,,,,,right,1,right,0.283438920975,2016_May_04_1404,59.9031393311,Gestalt_exp1,001,23125,
,Inverted-scrambled,images/i06.bmp,images/INVk06.bmp,,,,,0,9,9,34,,,,,,,right,0,left,0.416906833649,2016_May_04_1404,59.9031393311,Gestalt_exp1,001,23125,
,Gestalt-scrambled,images/i28.bmp,images/k28.bmp,,,,,0,10,10,27,,,,,,,left,1,left,0.30019402504,2016_May_04_1404,59.9031393311,Gestalt_exp1,001,23125,
,Inverted-Gestalt,images/k19.bmp,images/INVk19.bmp,,,,,0,11,11,65,,,,,,,right,1,right,0.25043797493,2016_May_04_1404,59.9031393311,Gestalt_exp1,001,23125,
,Gestalt-scrambled,images/i17.bmp,images/k17.bmp,,,,,0,12,12,16,,,,,,,left,1,left,2.90012097359,2016_May_04_1404,59.9031393311,Gestalt_exp1,001,23125,
,Inverted-Gestalt,images/k18.bmp,images/INVk18.bmp,,,,,0,13,13,64,,,,,,,right,1,right,0.383421897888,2016_May_04_1404,59.9031393311,Gestalt_exp1,001,23125,
,Gestalt-scrambled,images/i08.bmp,images/k08.bmp,,,,,0,14,14,7,,,,,,,left,0,right,0.249970197678,2016_May_04_1404,59.9031393311,Gestalt_exp1,001,23125,
,Inverted-scrambled,images/i16.bmp,images/INVk16.bmp,,,,,0,15,15,40,,,,,,,left,1,left,0.350924968719,2016_May_04_1404,59.9031393311,Gestalt_exp1,001,23125,
,Inverted-scrambled,images/i25.bmp,images/INVk25.bmp,,,,,0,16,16,47,,,,,,,right,1,right,0.216853141785,2016_May_04_1404,59.9031393311,Gestalt_exp1,001,23125,
,Inverted-scrambled,images/i04.bmp,images/INVk04.bmp,,,,,0,17,17,32,,,,,,,left,0,right,0.166671991348,2016_May_04_1404,59.9031393311,Gestalt_exp1,001,23125,
,Inverted-Gestalt,images/k09.bmp,images/INVk09.bmp,,,,,0,18,18,58,,,,,,,left,1,left,0.383498907089,2016_May_04_1404,59.9031393311,Gestalt_exp1,001,23125,
,Gestalt-scrambled,images/i13.bmp,images/k13.bmp,,,,,0,19,19,12,,,,,,,right,0,left,0.849461078644,2016_May_04_1404,59.9031393311,Gestalt_exp1,001,23125,
,Inverted-scrambled,images/i18.bmp,images/INVk18.bmp,,,,,0,20,20,41,,,,,,,right,1,right,0.549880981445,2016_May_04_1404,59.9031393311,Gestalt_exp1,001,23125,
,Inverted-scrambled,images/i23.bmp,images/INVk23.bmp,,,,,0,21,21,45,,,,,,,left,0,right,0.500057935715,2016_May_04_1404,59.9031393311,Gestalt_exp1,001,23125,
,Inverted-Gestalt,images/k27.bmp,images/INVk27.bmp,,,,,0,22,22,72,,,,,,,left,1,left,0.233197927475,2016_May_04_1404,59.9031393311,Gestalt_exp1,001,23125,
,Gestalt-scrambled,images/i21.bmp,images/k21.bmp,,,,,0,23,23,20,,,,,,,left,0,right,0.700377941132,2016_May_04_1404,59.9031393311,Gestalt_exp1,001,23125,
,Gestalt-scrambled,images/i09.bmp,images/k09.bmp,,,,,0,24,24,8,,,,,,,right,0,left,0.216646909714,2016_May_04_1404,59.9031393311,Gestalt_exp1,001,23125,
,Gestalt-scrambled,images/i10.bmp,images/k10.bmp,,,,,0,25,25,9,,,,,,,right,0,left,1.06680083275,2016_May_04_1404,59.9031393311,Gestalt_exp1,001,23125,
,Inverted-Gestalt,images/k24.bmp,images/INVk24.bmp,,,,,0,26,26,69,,,,,,,left,1,left,0.233687162399,2016_May_04_1404,59.9031393311,Gestalt_exp1,001,23125,
,Inverted-Gestalt,images/k12.bmp,images/INVk12.bmp,,,,,0,27,27,60,,,,,,,right,1,right,0.300182104111,2016_May_04_1404,59.9031393311,Gestalt_exp1,001,23125,
,Inverted-Gestalt,images/k21.bmp,images/INVk21.bmp,,,,,0,28,28,66,,,,,,,right,0,left,0.133663892746,2016_May_04_1404,59.9031393311,Gestalt_exp1,001,23125,
,Gestalt-scrambled,images/i15.bmp,images/k15.bmp,,,,,0,29,29,14,,,,,,,left,0,right,0.250389814377,2016_May_04_1404,59.9031393311,Gestalt_exp1,001,23125,
,Inverted-Gestalt,images/k06.bmp,images/INVk06.bmp,,,,,0,30,30,57,,,,,,,right,1,right,0.349836111069,2016_May_04_1404,59.9031393311,Gestalt_exp1,001,23125,
,Gestalt-scrambled,images/i07.bmp,images/k07.bmp,,,,,0,31,31,6,,,,,,,right,1,right,0.600136995316,2016_May_04_1404,59.9031393311,Gestalt_exp1,001,23125,
,Inverted-Gestalt,images/k01.bmp,images/INVk01.bmp,,,,,0,32,32,53,,,,,,,right,1,right,0.350238084793,2016_May_04_1404,59.9031393311,Gestalt_exp1,001,23125,
,Inverted-scrambled,images/i15.bmp,images/INVk15.bmp,,,,,0,33,33,39,,,,,,,left,1,left,0.632797002792,2016_May_04_1404,59.9031393311,Gestalt_exp1,001,23125,
,Gestalt-scrambled,images/i03.bmp,images/k03.bmp,,,,,0,34,34,2,,,,,,,right,1,right,0.749952077866,2016_May_04_1404,59.9031393311,Gestalt_exp1,001,23125,
,Inverted-scrambled,images/i05.bmp,images/INVk05.bmp,,,,,0,35,35,33,,,,,,,right,1,right,0.233721017838,2016_May_04_1404,59.9031393311,Gestalt_exp1,001,23125,
,Gestalt-scrambled,images/i24.bmp,images/k24.bmp,,,,,0,36,36,23,,,,,,,left,0,right,0.316823005676,2016_May_04_1404,59.9031393311,Gestalt_exp1,001,23125,
,Inverted-Gestalt,images/k04.bmp,images/INVk04.bmp,,,,,0,37,37,55,,,,,,,right,0,left,0.0340650081635,2016_May_04_1404,59.9031393311,Gestalt_exp1,001,23125,
,Gestalt-scrambled,images/i30.bmp,images/k30.bmp,,,,,0,38,38,29,,,,,,,left,0,right,0.167088985443,2016_May_04_1404,59.9031393311,Gestalt_exp1,001,23125,
,Inverted-Gestalt,images/k02.bmp,images/INVk03.bmp,,,,,0,39,39,54,,,,,,,left,0,right,0.250358104706,2016_May_04_1404,59.9031393311,Gestalt_exp1,001,23125,
,Inverted-Gestalt,images/k29.bmp,images/INVk29.bmp,,,,,0,40,40,74,,,,,,,left,1,left,0.1671230793,2016_May_04_1404,59.9031393311,Gestalt_exp1,001,23125,
,Gestalt-scrambled,images/i27.bmp,images/k27.bmp,,,,,0,41,41,26,,,,,,,right,0,left,0.216779947281,2016_May_04_1404,59.9031393311,Gestalt_exp1,001,23125,
,Gestalt-scrambled,images/i16.bmp,images/k16.bmp,,,,,0,42,42,15,,,,,,,left,1,left,0.166625022888,2016_May_04_1404,59.9031393311,Gestalt_exp1,001,23125,
,Inverted-scrambled,images/i29.bmp,images/INVk29.bmp,,,,,0,43,43,51,,,,,,,left,0,right,0.233682870865,2016_May_04_1404,59.9031393311,Gestalt_exp1,001,23125,
,Inverted-Gestalt,images/k15.bmp,images/INVk15.bmp,,,,,0,44,44,62,,,,,,,right,1,right,0.233654975891,2016_May_04_1404,59.9031393311,Gestalt_exp1,001,23125,
,Gestalt-scrambled,images/i01.bmp,images/k01.bmp,,,,,0,45,45,0,,,,,,,right,1,right,0.166858911514,2016_May_04_1404,59.9031393311,Gestalt_exp1,001,23125,
,Gestalt-scrambled,images/i26.bmp,images/k26.bmp,,,,,0,46,46,25,,,,,,,left,0,right,0.199714183807,2016_May_04_1404,59.9031393311,Gestalt_exp1,001,23125,
,Gestalt-scrambled,images/i02.bmp,images/k02.bmp,,,,,0,47,47,1,,,,,,,right,1,right,0.0834791660309,2016_May_04_1404,59.9031393311,Gestalt_exp1,001,23125,
,Gestalt-scrambled,images/i05.bmp,images/k05.bmp,,,,,0,48,48,4,,,,,,,right,0,left,0.216820001602,2016_May_04_1404,59.9031393311,Gestalt_exp1,001,23125,
,Gestalt-scrambled,images/i20.bmp,images/k20.bmp,,,,,0,49,49,19,,,,,,,right,0,left,0.249556064606,2016_May_04_1404,59.9031393311,Gestalt_exp1,001,23125,
,Inverted-scrambled,images/i24.bmp,images/INVk24.bmp,,,,,0,50,50,46,,,,,,,left,0,right,0.149981021881,2016_May_04_1404,59.9031393311,Gestalt_exp1,001,23125,
,Inverted-Gestalt,images/k14.bmp,images/INVk14.bmp,,,,,0,51,51,61,,,,,,,right,1,right,0.0835039615631,2016_May_04_1404,59.9031393311,Gestalt_exp1,001,23125,
,Inverted-scrambled,images/i14.bmp,images/INVk14.bmp,,,,,0,52,52,38,,,,,,,right,1,right,0.133201122284,2016_May_04_1404,59.9031393311,Gestalt_exp1,001,23125,
,Inverted-scrambled,images/i30.bmp,images/INVk30.bmp,,,,,0,53,53,52,,,,,,,right,1,right,0.0170669555664,2016_May_04_1404,59.9031393311,Gestalt_exp1,001,23125,
,Inverted-scrambled,images/i21.bmp,images/INVk21.bmp,,,,,0,54,54,43,,,,,,,right,0,left,0.133349895477,2016_May_04_1404,59.9031393311,Gestalt_exp1,001,23125,
,Gestalt-scrambled,images/i14.bmp,images/k14.bmp,,,,,0,55,55,13,,,,,,,left,1,left,0.0833990573883,2016_May_04_1404,59.9031393311,Gestalt_exp1,001,23125,
,Gestalt-scrambled,images/i25.bmp,images/k25.bmp,,,,,0,56,56,24,,,,,,,right,1,right,0.117288827896,2016_May_04_1404,59.9031393311,Gestalt_exp1,001,23125,
,Inverted-Gestalt,images/k28.bmp,images/INVk28.bmp,,,,,0,57,57,73,,,,,,,right,0,left,0.100112915039,2016_May_04_1404,59.9031393311,Gestalt_exp1,001,23125,
,Inverted-scrambled,images/i12.bmp,images/INVk12.bmp,,,,,0,58,58,37,,,,,,,right,1,right,0.183547973633,2016_May_04_1404,59.9031393311,Gestalt_exp1,001,23125,
,Gestalt-scrambled,images/i29.bmp,images/k29.bmp,,,,,0,59,59,28,,,,,,,left,0,right,0.216634988785,2016_May_04_1404,59.9031393311,Gestalt_exp1,001,23125,
,Gestalt-scrambled,images/i11.bmp,images/k11.bmp,,,,,0,60,60,10,,,,,,,right,0,left,0.100253820419,2016_May_04_1404,59.9031393311,Gestalt_exp1,001,23125,
,Gestalt-scrambled,images/i22.bmp,images/k22.bmp,,,,,0,61,61,21,,,,,,,right,0,left,0.183526039124,2016_May_04_1404,59.9031393311,Gestalt_exp1,001,23125,
,Inverted-scrambled,images/i28.bmp,images/INVk28.bmp,,,,,0,62,62,50,,,,,,,right,0,left,0.0835089683533,2016_May_04_1404,59.9031393311,Gestalt_exp1,001,23125,
,Gestalt-scrambled,images/i19.bmp,images/k19.bmp,,,,,0,63,63,18,,,,,,,right,1,right,1.44997882843,2016_May_04_1404,59.9031393311,Gestalt_exp1,001,23125,
,Inverted-Gestalt,images/k26.bmp,images/INVk26.bmp,,,,,0,64,64,71,,,,,,,right,1,right,0.217391014099,2016_May_04_1404,59.9031393311,Gestalt_exp1,001,23125,
,Inverted-Gestalt,images/k05.bmp,images/INVk05.bmp,,,,,0,65,65,56,,,,,,,right,1,right,0.233542919159,2016_May_04_1404,59.9031393311,Gestalt_exp1,001,23125,
,Inverted-scrambled,images/i01.bmp,images/INVk01.bmp,,,,,0,66,66,30,,,,,,,left,1,left,0.383417129517,2016_May_04_1404,59.9031393311,Gestalt_exp1,001,23125,
,Inverted-scrambled,images/i10.bmp,images/INVk10.bmp,,,,,0,67,67,36,,,,,,,left,0,right,0.184274196625,2016_May_04_1404,59.9031393311,Gestalt_exp1,001,23125,
,Inverted-scrambled,images/i22.bmp,images/INVk22.bmp,,,,,0,68,68,44,,,,,,,left,1,left,0.350344181061,2016_May_04_1404,59.9031393311,Gestalt_exp1,001,23125,
,Gestalt-scrambled,images/i04.bmp,images/k04.bmp,,,,,0,69,69,3,,,,,,,right,1,right,0.167190074921,2016_May_04_1404,59.9031393311,Gestalt_exp1,001,23125,
,Inverted-Gestalt,images/k16.bmp,images/INVk16.bmp,,,,,0,70,70,63,,,,,,,right,1,right,1.78371906281,2016_May_04_1404,59.9031393311,Gestalt_exp1,001,23125,
,Inverted-Gestalt,images/k23.bmp,images/INVk23.bmp,,,,,0,71,71,68,,,,,,,right,0,left,0.199969053268,2016_May_04_1404,59.9031393311,Gestalt_exp1,001,23125,
,Gestalt-scrambled,images/i12.bmp,images/k12.bmp,,,,,0,72,72,11,,,,,,,right,1,right,0.216844081879,2016_May_04_1404,59.9031393311,Gestalt_exp1,001,23125,
,Inverted-Gestalt,images/k30.bmp,images/INVk30.bmp,,,,,0,73,73,75,,,,,,,right,1,right,0.14944601059,2016_May_04_1404,59.9031393311,Gestalt_exp1,001,23125,
,Inverted-scrambled,images/i02.bmp,images/INVk03.bmp,,,,,0,74,74,31,,,,,,,left,0,right,0.216840028763,2016_May_04_1404,59.9031393311,Gestalt_exp1,001,23125,
,Gestalt-scrambled,images/i23.bmp,images/k23.bmp,,,,,0,75,75,22,,,,,,,right,0,left,0.4334897995,2016_May_04_1404,59.9031393311,Gestalt_exp1,001,23125,
