images,condition,imgB,imgA,trials.thisRepN,trials.thisTrialN,trials.thisN,trials.thisIndex,numLoop.thisRepN,numLoop.thisTrialN,numLoop.thisN,numLoop.thisIndex,response.keys,response.rt,rating.response,rating.rt,key_resp_2.keys,key_resp_2.rt,numResp.keys,numResp.corr,numResp.Alocation,numResp.rt,date,frameRate,expName,session,participant,
,,,,,,,,,,,,space,63.8841061592,,,,,,,,,2016_Oct_24_1403,59.9081874302,Gestalt_exp1,001,7333,
images/k25.bmp,gestalt,,,0,0,0,24,,,,,,,5,7.103,,,,,,,2016_Oct_24_1403,59.9081874302,Gestalt_exp1,001,7333,
images/k18.bmp,gestalt,,,0,1,1,17,,,,,,,5,4.852,,,,,,,2016_Oct_24_1403,59.9081874302,Gestalt_exp1,001,7333,
images/INVk14.bmp,inverted,,,0,2,2,68,,,,,,,5,2.902,,,,,,,2016_Oct_24_1403,59.9081874302,Gestalt_exp1,001,7333,
images/INVk10.bmp,inverted,,,0,3,3,66,,,,,,,5,2.269,,,,,,,2016_Oct_24_1403,59.9081874302,Gestalt_exp1,001,7333,
images/i27.bmp,scrambled,,,0,4,4,56,,,,,,,4,4.102,,,,,,,2016_Oct_24_1403,59.9081874302,Gestalt_exp1,001,7333,
images/i17.bmp,scrambled,,,0,5,5,46,,,,,,,5,2.068,,,,,,,2016_Oct_24_1403,59.9081874302,Gestalt_exp1,001,7333,
images/INVk19.bmp,inverted,,,0,6,6,72,,,,,,,5,1.868,,,,,,,2016_Oct_24_1403,59.9081874302,Gestalt_exp1,001,7333,
images/i13.bmp,scrambled,,,0,7,7,42,,,,,,,4,2.635,,,,,,,2016_Oct_24_1403,59.9081874302,Gestalt_exp1,001,7333,
images/k28.bmp,gestalt,,,0,8,8,27,,,,,,,4,1.585,,,,,,,2016_Oct_24_1403,59.9081874302,Gestalt_exp1,001,7333,
images/i25.bmp,scrambled,,,0,9,9,54,,,,,,,4,2.102,,,,,,,2016_Oct_24_1403,59.9081874302,Gestalt_exp1,001,7333,
images/k19.bmp,gestalt,,,0,10,10,18,,,,,,,5,1.835,,,,,,,2016_Oct_24_1403,59.9081874302,Gestalt_exp1,001,7333,
images/i12.bmp,scrambled,,,0,11,11,41,,,,,,,4,4.085,,,,,,,2016_Oct_24_1403,59.9081874302,Gestalt_exp1,001,7333,
images/INVk16.bmp,inverted,,,0,12,12,70,,,,,,,4,2.002,,,,,,,2016_Oct_24_1403,59.9081874302,Gestalt_exp1,001,7333,
images/i02.bmp,scrambled,,,0,13,13,31,,,,,,,3,1.718,,,,,,,2016_Oct_24_1403,59.9081874302,Gestalt_exp1,001,7333,
images/k27.bmp,gestalt,,,0,14,14,26,,,,,,,5,3.368,,,,,,,2016_Oct_24_1403,59.9081874302,Gestalt_exp1,001,7333,
images/i24.bmp,scrambled,,,0,15,15,53,,,,,,,5,2.619,,,,,,,2016_Oct_24_1403,59.9081874302,Gestalt_exp1,001,7333,
images/i06.bmp,scrambled,,,0,16,16,35,,,,,,,4,1.819,,,,,,,2016_Oct_24_1403,59.9081874302,Gestalt_exp1,001,7333,
images/k12.bmp,gestalt,,,0,17,17,11,,,,,,,5,2.819,,,,,,,2016_Oct_24_1403,59.9081874302,Gestalt_exp1,001,7333,
images/k24.bmp,gestalt,,,0,18,18,23,,,,,,,5,2.952,,,,,,,2016_Oct_24_1403,59.9081874302,Gestalt_exp1,001,7333,
images/k14.bmp,gestalt,,,0,19,19,13,,,,,,,5,2.735,,,,,,,2016_Oct_24_1403,59.9081874302,Gestalt_exp1,001,7333,
images/INVk09.bmp,inverted,,,0,20,20,65,,,,,,,5,1.969,,,,,,,2016_Oct_24_1403,59.9081874302,Gestalt_exp1,001,7333,
images/i18.bmp,scrambled,,,0,21,21,47,,,,,,,5,1.668,,,,,,,2016_Oct_24_1403,59.9081874302,Gestalt_exp1,001,7333,
images/i08.bmp,scrambled,,,0,22,22,37,,,,,,,4,1.719,,,,,,,2016_Oct_24_1403,59.9081874302,Gestalt_exp1,001,7333,
images/INVk12.bmp,inverted,,,0,23,23,67,,,,,,,4,2.302,,,,,,,2016_Oct_24_1403,59.9081874302,Gestalt_exp1,001,7333,
images/k09.bmp,gestalt,,,0,24,24,8,,,,,,,4,1.852,,,,,,,2016_Oct_24_1403,59.9081874302,Gestalt_exp1,001,7333,
images/INVk04.bmp,inverted,,,0,25,25,62,,,,,,,5,1.67,,,,,,,2016_Oct_24_1403,59.9081874302,Gestalt_exp1,001,7333,
images/i05.bmp,scrambled,,,0,26,26,34,,,,,,,5,1.802,,,,,,,2016_Oct_24_1403,59.9081874302,Gestalt_exp1,001,7333,
images/INVk28.bmp,inverted,,,0,27,27,80,,,,,,,5,1.552,,,,,,,2016_Oct_24_1403,59.9081874302,Gestalt_exp1,001,7333,
images/k06.bmp,gestalt,,,0,28,28,5,,,,,,,4,2.185,,,,,,,2016_Oct_24_1403,59.9081874302,Gestalt_exp1,001,7333,
images/INVk06.bmp,inverted,,,0,29,29,64,,,,,,,4,1.636,,,,,,,2016_Oct_24_1403,59.9081874302,Gestalt_exp1,001,7333,
images/i28.bmp,scrambled,,,0,30,30,57,,,,,,,5,2.085,,,,,,,2016_Oct_24_1403,59.9081874302,Gestalt_exp1,001,7333,
images/i23.bmp,scrambled,,,0,31,31,52,,,,,,,6,2.536,,,,,,,2016_Oct_24_1403,59.9081874302,Gestalt_exp1,001,7333,
images/i03.bmp,scrambled,,,0,32,32,32,,,,,,,6,1.486,,,,,,,2016_Oct_24_1403,59.9081874302,Gestalt_exp1,001,7333,
images/INVk21.bmp,inverted,,,0,33,33,73,,,,,,,4,1.736,,,,,,,2016_Oct_24_1403,59.9081874302,Gestalt_exp1,001,7333,
images/INVk18.bmp,inverted,,,0,34,34,71,,,,,,,5,1.785,,,,,,,2016_Oct_24_1403,59.9081874302,Gestalt_exp1,001,7333,
images/INVk26.bmp,inverted,,,0,35,35,78,,,,,,,5,1.986,,,,,,,2016_Oct_24_1403,59.9081874302,Gestalt_exp1,001,7333,
images/k22.bmp,gestalt,,,0,36,36,21,,,,,,,5,2.719,,,,,,,2016_Oct_24_1403,59.9081874302,Gestalt_exp1,001,7333,
images/INVk30.bmp,inverted,,,0,37,37,82,,,,,,,5,2.034,,,,,,,2016_Oct_24_1403,59.9081874302,Gestalt_exp1,001,7333,
images/i29.bmp,scrambled,,,0,38,38,58,,,,,,,5,2.019,,,,,,,2016_Oct_24_1403,59.9081874302,Gestalt_exp1,001,7333,
images/k26.bmp,gestalt,,,0,39,39,25,,,,,,,5,1.885,,,,,,,2016_Oct_24_1403,59.9081874302,Gestalt_exp1,001,7333,
images/k03.bmp,gestalt,,,0,40,40,2,,,,,,,6,2.069,,,,,,,2016_Oct_24_1403,59.9081874302,Gestalt_exp1,001,7333,
images/i01.bmp,scrambled,,,0,41,41,30,,,,,,,5,1.602,,,,,,,2016_Oct_24_1403,59.9081874302,Gestalt_exp1,001,7333,
images/k07.bmp,gestalt,,,0,42,42,6,,,,,,,5,2.102,,,,,,,2016_Oct_24_1403,59.9081874302,Gestalt_exp1,001,7333,
images/i16.bmp,scrambled,,,0,43,43,45,,,,,,,6,1.736,,,,,,,2016_Oct_24_1403,59.9081874302,Gestalt_exp1,001,7333,
images/i21.bmp,scrambled,,,0,44,44,50,,,,,,,4,1.451,,,,,,,2016_Oct_24_1403,59.9081874302,Gestalt_exp1,001,7333,
images/k04.bmp,gestalt,,,0,45,45,3,,,,,,,4,1.668,,,,,,,2016_Oct_24_1403,59.9081874302,Gestalt_exp1,001,7333,
images/INVk03.bmp,inverted,,,0,46,46,61,,,,,,,5,1.519,,,,,,,2016_Oct_24_1403,59.9081874302,Gestalt_exp1,001,7333,
images/INVk01.bmp,inverted,,,0,47,47,60,,,,,,,5,2.702,,,,,,,2016_Oct_24_1403,59.9081874302,Gestalt_exp1,001,7333,
images/INVk23.bmp,inverted,,,0,48,48,75,,,,,,,5,2.736,,,,,,,2016_Oct_24_1403,59.9081874302,Gestalt_exp1,001,7333,
images/INVk05.bmp,inverted,,,0,49,49,63,,,,,,,5,2.585,,,,,,,2016_Oct_24_1403,59.9081874302,Gestalt_exp1,001,7333,
images/k29.bmp,gestalt,,,0,50,50,28,,,,,,,5,3.002,,,,,,,2016_Oct_24_1403,59.9081874302,Gestalt_exp1,001,7333,
images/i09.bmp,scrambled,,,0,51,51,38,,,,,,,5,3.085,,,,,,,2016_Oct_24_1403,59.9081874302,Gestalt_exp1,001,7333,
images/k10.bmp,gestalt,,,0,52,52,9,,,,,,,5,2.335,,,,,,,2016_Oct_24_1403,59.9081874302,Gestalt_exp1,001,7333,
images/k13.bmp,gestalt,,,0,53,53,12,,,,,,,4,2.152,,,,,,,2016_Oct_24_1403,59.9081874302,Gestalt_exp1,001,7333,
images/i07.bmp,scrambled,,,0,54,54,36,,,,,,,4,2.069,,,,,,,2016_Oct_24_1403,59.9081874302,Gestalt_exp1,001,7333,
images/INVk25.bmp,inverted,,,0,55,55,77,,,,,,,5,1.636,,,,,,,2016_Oct_24_1403,59.9081874302,Gestalt_exp1,001,7333,
images/INVk29.bmp,inverted,,,0,56,56,81,,,,,,,5,2.852,,,,,,,2016_Oct_24_1403,59.9081874302,Gestalt_exp1,001,7333,
images/k16.bmp,gestalt,,,0,57,57,15,,,,,,,5,1.768,,,,,,,2016_Oct_24_1403,59.9081874302,Gestalt_exp1,001,7333,
images/i22.bmp,scrambled,,,0,58,58,51,,,,,,,5,1.834,,,,,,,2016_Oct_24_1403,59.9081874302,Gestalt_exp1,001,7333,
images/k20.bmp,gestalt,,,0,59,59,19,,,,,,,5,1.636,,,,,,,2016_Oct_24_1403,59.9081874302,Gestalt_exp1,001,7333,
images/i04.bmp,scrambled,,,0,60,60,33,,,,,,,4,1.67,,,,,,,2016_Oct_24_1403,59.9081874302,Gestalt_exp1,001,7333,
images/k05.bmp,gestalt,,,0,61,61,4,,,,,,,5,1.585,,,,,,,2016_Oct_24_1403,59.9081874302,Gestalt_exp1,001,7333,
images/k21.bmp,gestalt,,,0,62,62,20,,,,,,,5,1.753,,,,,,,2016_Oct_24_1403,59.9081874302,Gestalt_exp1,001,7333,
images/INVk27.bmp,inverted,,,0,63,63,79,,,,,,,5,2.17,,,,,,,2016_Oct_24_1403,59.9081874302,Gestalt_exp1,001,7333,
images/INVk15.bmp,inverted,,,0,64,64,69,,,,,,,5,1.719,,,,,,,2016_Oct_24_1403,59.9081874302,Gestalt_exp1,001,7333,
images/i30.bmp,scrambled,,,0,65,65,59,,,,,,,5,2.435,,,,,,,2016_Oct_24_1403,59.9081874302,Gestalt_exp1,001,7333,
images/k11.bmp,gestalt,,,0,66,66,10,,,,,,,4,1.736,,,,,,,2016_Oct_24_1403,59.9081874302,Gestalt_exp1,001,7333,
images/i11.bmp,scrambled,,,0,67,67,40,,,,,,,5,2.652,,,,,,,2016_Oct_24_1403,59.9081874302,Gestalt_exp1,001,7333,
images/i20.bmp,scrambled,,,0,68,68,49,,,,,,,5,2.652,,,,,,,2016_Oct_24_1403,59.9081874302,Gestalt_exp1,001,7333,
images/INVk24.bmp,inverted,,,0,69,69,76,,,,,,,6,2.468,,,,,,,2016_Oct_24_1403,59.9081874302,Gestalt_exp1,001,7333,
images/k23.bmp,gestalt,,,0,70,70,22,,,,,,,5,1.534,,,,,,,2016_Oct_24_1403,59.9081874302,Gestalt_exp1,001,7333,
images/k02.bmp,gestalt,,,0,71,71,1,,,,,,,4,1.852,,,,,,,2016_Oct_24_1403,59.9081874302,Gestalt_exp1,001,7333,
images/i19.bmp,scrambled,,,0,72,72,48,,,,,,,5,1.585,,,,,,,2016_Oct_24_1403,59.9081874302,Gestalt_exp1,001,7333,
images/INVk22.bmp,inverted,,,0,73,73,74,,,,,,,5,1.619,,,,,,,2016_Oct_24_1403,59.9081874302,Gestalt_exp1,001,7333,
images/k01.bmp,gestalt,,,0,74,74,0,,,,,,,5,2.035,,,,,,,2016_Oct_24_1403,59.9081874302,Gestalt_exp1,001,7333,
images/k15.bmp,gestalt,,,0,75,75,14,,,,,,,5,1.869,,,,,,,2016_Oct_24_1403,59.9081874302,Gestalt_exp1,001,7333,
images/k08.bmp,gestalt,,,0,76,76,7,,,,,,,4,1.702,,,,,,,2016_Oct_24_1403,59.9081874302,Gestalt_exp1,001,7333,
images/k30.bmp,gestalt,,,0,77,77,29,,,,,,,5,1.586,,,,,,,2016_Oct_24_1403,59.9081874302,Gestalt_exp1,001,7333,
images/i15.bmp,scrambled,,,0,78,78,44,,,,,,,5,1.702,,,,,,,2016_Oct_24_1403,59.9081874302,Gestalt_exp1,001,7333,
images/i10.bmp,scrambled,,,0,79,79,39,,,,,,,5,1.802,,,,,,,2016_Oct_24_1403,59.9081874302,Gestalt_exp1,001,7333,
images/i26.bmp,scrambled,,,0,80,80,55,,,,,,,5,1.719,,,,,,,2016_Oct_24_1403,59.9081874302,Gestalt_exp1,001,7333,
images/i14.bmp,scrambled,,,0,81,81,43,,,,,,,5,1.67,,,,,,,2016_Oct_24_1403,59.9081874302,Gestalt_exp1,001,7333,
images/k17.bmp,gestalt,,,0,82,82,16,,,,,,,6,1.602,,,,,,,2016_Oct_24_1403,59.9081874302,Gestalt_exp1,001,7333,
,,,,,,,,,,,,,,,,space,22.3834660053,,,,,2016_Oct_24_1403,59.9081874302,Gestalt_exp1,001,7333,
,Inverted-Gestalt,images/k19.bmp,images/INVk19.bmp,,,,,0,0,0,65,,,,,,,right,1,right,0.583532094955,2016_Oct_24_1403,59.9081874302,Gestalt_exp1,001,7333,
,Gestalt-scrambled,images/i11.bmp,images/k11.bmp,,,,,0,1,1,10,,,,,,,right,0,left,0.666313886642,2016_Oct_24_1403,59.9081874302,Gestalt_exp1,001,7333,
,Inverted-Gestalt,images/k22.bmp,images/INVk22.bmp,,,,,0,2,2,67,,,,,,,left,0,right,0.549444913864,2016_Oct_24_1403,59.9081874302,Gestalt_exp1,001,7333,
,Inverted-Gestalt,images/k24.bmp,images/INVk24.bmp,,,,,0,3,3,69,,,,,,,left,1,left,0.632755994797,2016_Oct_24_1403,59.9081874302,Gestalt_exp1,001,7333,
,Inverted-Gestalt,images/k25.bmp,images/INVk25.bmp,,,,,0,4,4,70,,,,,,,left,0,right,1.0336868763,2016_Oct_24_1403,59.9081874302,Gestalt_exp1,001,7333,
,Inverted-Gestalt,images/k29.bmp,images/INVk29.bmp,,,,,0,5,5,74,,,,,,,left,1,left,0.700111865997,2016_Oct_24_1403,59.9081874302,Gestalt_exp1,001,7333,
,Inverted-scrambled,images/i02.bmp,images/INVk03.bmp,,,,,0,6,6,31,,,,,,,right,0,left,0.216687917709,2016_Oct_24_1403,59.9081874302,Gestalt_exp1,001,7333,
,Gestalt-scrambled,images/i03.bmp,images/k03.bmp,,,,,0,7,7,2,,,,,,,left,1,left,0.283118963242,2016_Oct_24_1403,59.9081874302,Gestalt_exp1,001,7333,
,Gestalt-scrambled,images/i26.bmp,images/k26.bmp,,,,,0,8,8,25,,,,,,,right,0,left,0.250431060791,2016_Oct_24_1403,59.9081874302,Gestalt_exp1,001,7333,
,Inverted-scrambled,images/i10.bmp,images/INVk10.bmp,,,,,0,9,9,36,,,,,,,left,1,left,0.666435956955,2016_Oct_24_1403,59.9081874302,Gestalt_exp1,001,7333,
,Gestalt-scrambled,images/i22.bmp,images/k22.bmp,,,,,0,10,10,21,,,,,,,right,1,right,0.366813898087,2016_Oct_24_1403,59.9081874302,Gestalt_exp1,001,7333,
,Gestalt-scrambled,images/i24.bmp,images/k24.bmp,,,,,0,11,11,23,,,,,,,left,1,left,0.416023015976,2016_Oct_24_1403,59.9081874302,Gestalt_exp1,001,7333,
,Inverted-Gestalt,images/k04.bmp,images/INVk04.bmp,,,,,0,12,12,55,,,,,,,right,0,left,0.533737897873,2016_Oct_24_1403,59.9081874302,Gestalt_exp1,001,7333,
,Gestalt-scrambled,images/i29.bmp,images/k29.bmp,,,,,0,13,13,28,,,,,,,right,0,left,1.21682095528,2016_Oct_24_1403,59.9081874302,Gestalt_exp1,001,7333,
,Inverted-Gestalt,images/k15.bmp,images/INVk15.bmp,,,,,0,14,14,62,,,,,,,left,0,right,0.249992847443,2016_Oct_24_1403,59.9081874302,Gestalt_exp1,001,7333,
,Inverted-scrambled,images/i18.bmp,images/INVk18.bmp,,,,,0,15,15,41,,,,,,,right,1,right,0.183495998383,2016_Oct_24_1403,59.9081874302,Gestalt_exp1,001,7333,
,Inverted-Gestalt,images/k14.bmp,images/INVk14.bmp,,,,,0,16,16,61,,,,,,,left,0,right,1.76662397385,2016_Oct_24_1403,59.9081874302,Gestalt_exp1,001,7333,
,Gestalt-scrambled,images/i12.bmp,images/k12.bmp,,,,,0,17,17,11,,,,,,,right,1,right,0.566742897034,2016_Oct_24_1403,59.9081874302,Gestalt_exp1,001,7333,
,Inverted-scrambled,images/i19.bmp,images/INVk19.bmp,,,,,0,18,18,42,,,,,,,right,1,right,1.35005879402,2016_Oct_24_1403,59.9081874302,Gestalt_exp1,001,7333,
,Inverted-Gestalt,images/k02.bmp,images/INVk03.bmp,,,,,0,19,19,54,,,,,,,right,0,left,0.317040920258,2016_Oct_24_1403,59.9081874302,Gestalt_exp1,001,7333,
,Inverted-scrambled,images/i04.bmp,images/INVk04.bmp,,,,,0,20,20,32,,,,,,,right,0,left,0.350126028061,2016_Oct_24_1403,59.9081874302,Gestalt_exp1,001,7333,
,Gestalt-scrambled,images/i27.bmp,images/k27.bmp,,,,,0,21,21,26,,,,,,,left,0,right,0.449813842773,2016_Oct_24_1403,59.9081874302,Gestalt_exp1,001,7333,
,Inverted-Gestalt,images/k27.bmp,images/INVk27.bmp,,,,,0,22,22,72,,,,,,,right,1,right,0.399974107742,2016_Oct_24_1403,59.9081874302,Gestalt_exp1,001,7333,
,Inverted-scrambled,images/i29.bmp,images/INVk29.bmp,,,,,0,23,23,51,,,,,,,right,1,right,0.515990972519,2016_Oct_24_1403,59.9081874302,Gestalt_exp1,001,7333,
,Inverted-Gestalt,images/k09.bmp,images/INVk09.bmp,,,,,0,24,24,58,,,,,,,left,1,left,0.383433818817,2016_Oct_24_1403,59.9081874302,Gestalt_exp1,001,7333,
,Gestalt-scrambled,images/i08.bmp,images/k08.bmp,,,,,0,25,25,7,,,,,,,right,0,left,0.134082794189,2016_Oct_24_1403,59.9081874302,Gestalt_exp1,001,7333,
,Inverted-scrambled,images/i22.bmp,images/INVk22.bmp,,,,,0,26,26,44,,,,,,,right,1,right,0.13362288475,2016_Oct_24_1403,59.9081874302,Gestalt_exp1,001,7333,
,Inverted-scrambled,images/i09.bmp,images/INVk09.bmp,,,,,0,27,27,35,,,,,,,left,0,right,0.31609416008,2016_Oct_24_1403,59.9081874302,Gestalt_exp1,001,7333,
,Inverted-Gestalt,images/k01.bmp,images/INVk01.bmp,,,,,0,28,28,53,,,,,,,right,0,left,0.283499002457,2016_Oct_24_1403,59.9081874302,Gestalt_exp1,001,7333,
,Inverted-Gestalt,images/k28.bmp,images/INVk28.bmp,,,,,0,29,29,73,,,,,,,right,1,right,0.0341780185699,2016_Oct_24_1403,59.9081874302,Gestalt_exp1,001,7333,
,Inverted-scrambled,images/i24.bmp,images/INVk24.bmp,,,,,0,30,30,46,,,,,,,right,0,left,0.300112009048,2016_Oct_24_1403,59.9081874302,Gestalt_exp1,001,7333,
,Inverted-scrambled,images/i01.bmp,images/INVk01.bmp,,,,,0,31,31,30,,,,,,,right,0,left,0.7175989151,2016_Oct_24_1403,59.9081874302,Gestalt_exp1,001,7333,
,Gestalt-scrambled,images/i28.bmp,images/k28.bmp,,,,,0,32,32,27,,,,,,,left,0,right,0.500316143036,2016_Oct_24_1403,59.9081874302,Gestalt_exp1,001,7333,
,Inverted-scrambled,images/i25.bmp,images/INVk25.bmp,,,,,0,33,33,47,,,,,,,right,0,left,0.117000102997,2016_Oct_24_1403,59.9081874302,Gestalt_exp1,001,7333,
,Gestalt-scrambled,images/i05.bmp,images/k05.bmp,,,,,0,34,34,4,,,,,,,right,0,left,0.38297700882,2016_Oct_24_1403,59.9081874302,Gestalt_exp1,001,7333,
,Inverted-scrambled,images/i16.bmp,images/INVk16.bmp,,,,,0,35,35,40,,,,,,,right,1,right,0.0504047870636,2016_Oct_24_1403,59.9081874302,Gestalt_exp1,001,7333,
,Gestalt-scrambled,images/i20.bmp,images/k20.bmp,,,,,0,36,36,19,,,,,,,right,1,right,0.0834891796112,2016_Oct_24_1403,59.9081874302,Gestalt_exp1,001,7333,
,Gestalt-scrambled,images/i06.bmp,images/k06.bmp,,,,,0,37,37,5,,,,,,,left,0,right,0.816874980927,2016_Oct_24_1403,59.9081874302,Gestalt_exp1,001,7333,
,Inverted-Gestalt,images/k30.bmp,images/INVk30.bmp,,,,,0,38,38,75,,,,,,,right,1,right,0.583338975906,2016_Oct_24_1403,59.9081874302,Gestalt_exp1,001,7333,
,Gestalt-scrambled,images/i16.bmp,images/k16.bmp,,,,,0,39,39,15,,,,,,,left,0,right,0.582943916321,2016_Oct_24_1403,59.9081874302,Gestalt_exp1,001,7333,
,Inverted-Gestalt,images/k18.bmp,images/INVk18.bmp,,,,,0,40,40,64,,,,,,,left,1,left,0.866658210754,2016_Oct_24_1403,59.9081874302,Gestalt_exp1,001,7333,
,Inverted-Gestalt,images/k16.bmp,images/INVk16.bmp,,,,,0,41,41,63,,,,,,,right,1,right,0.732578039169,2016_Oct_24_1403,59.9081874302,Gestalt_exp1,001,7333,
,Inverted-scrambled,images/i26.bmp,images/INVk26.bmp,,,,,0,42,42,48,,,,,,,left,0,right,0.834057092667,2016_Oct_24_1403,59.9081874302,Gestalt_exp1,001,7333,
,Inverted-scrambled,images/i12.bmp,images/INVk12.bmp,,,,,0,43,43,37,,,,,,,right,0,left,0.516941070557,2016_Oct_24_1403,59.9081874302,Gestalt_exp1,001,7333,
,Gestalt-scrambled,images/i17.bmp,images/k17.bmp,,,,,0,44,44,16,,,,,,,left,1,left,0.249922990799,2016_Oct_24_1403,59.9081874302,Gestalt_exp1,001,7333,
,Gestalt-scrambled,images/i25.bmp,images/k25.bmp,,,,,0,45,45,24,,,,,,,right,0,left,0.100191116333,2016_Oct_24_1403,59.9081874302,Gestalt_exp1,001,7333,
,Gestalt-scrambled,images/i04.bmp,images/k04.bmp,,,,,0,46,46,3,,,,,,,left,1,left,0.200715065002,2016_Oct_24_1403,59.9081874302,Gestalt_exp1,001,7333,
,Gestalt-scrambled,images/i07.bmp,images/k07.bmp,,,,,0,47,47,6,,,,,,,left,1,left,1.20009613037,2016_Oct_24_1403,59.9081874302,Gestalt_exp1,001,7333,
,Gestalt-scrambled,images/i18.bmp,images/k18.bmp,,,,,0,48,48,17,,,,,,,right,0,left,0.283531904221,2016_Oct_24_1403,59.9081874302,Gestalt_exp1,001,7333,
,Gestalt-scrambled,images/i13.bmp,images/k13.bmp,,,,,0,49,49,12,,,,,,,right,0,left,0.417336940765,2016_Oct_24_1403,59.9081874302,Gestalt_exp1,001,7333,
,Inverted-Gestalt,images/k21.bmp,images/INVk21.bmp,,,,,0,50,50,66,,,,,,,right,0,left,0.333822011948,2016_Oct_24_1403,59.9081874302,Gestalt_exp1,001,7333,
,Gestalt-scrambled,images/i30.bmp,images/k30.bmp,,,,,0,51,51,29,,,,,,,right,0,left,0.166120052338,2016_Oct_24_1403,59.9081874302,Gestalt_exp1,001,7333,
,Gestalt-scrambled,images/i21.bmp,images/k21.bmp,,,,,0,52,52,20,,,,,,,right,1,right,0.416106939316,2016_Oct_24_1403,59.9081874302,Gestalt_exp1,001,7333,
,Inverted-Gestalt,images/k12.bmp,images/INVk12.bmp,,,,,0,53,53,60,,,,,,,right,0,left,0.150945901871,2016_Oct_24_1403,59.9081874302,Gestalt_exp1,001,7333,
,Inverted-scrambled,images/i06.bmp,images/INVk06.bmp,,,,,0,54,54,34,,,,,,,left,0,right,0.36715722084,2016_Oct_24_1403,59.9081874302,Gestalt_exp1,001,7333,
,Inverted-Gestalt,images/k10.bmp,images/INVk10.bmp,,,,,0,55,55,59,,,,,,,right,1,right,0.216846942902,2016_Oct_24_1403,59.9081874302,Gestalt_exp1,001,7333,
,Gestalt-scrambled,images/i23.bmp,images/k23.bmp,,,,,0,56,56,22,,,,,,,right,0,left,0.549873113632,2016_Oct_24_1403,59.9081874302,Gestalt_exp1,001,7333,
,Gestalt-scrambled,images/i09.bmp,images/k09.bmp,,,,,0,57,57,8,,,,,,,right,0,left,0.417196989059,2016_Oct_24_1403,59.9081874302,Gestalt_exp1,001,7333,
,Gestalt-scrambled,images/i01.bmp,images/k01.bmp,,,,,0,58,58,0,,,,,,,right,0,left,0.284273862839,2016_Oct_24_1403,59.9081874302,Gestalt_exp1,001,7333,
,Inverted-scrambled,images/i14.bmp,images/INVk14.bmp,,,,,0,59,59,38,,,,,,,right,0,left,0.250493049622,2016_Oct_24_1403,59.9081874302,Gestalt_exp1,001,7333,
,Inverted-Gestalt,images/k23.bmp,images/INVk23.bmp,,,,,0,60,60,68,,,,,,,left,0,right,0.250420093536,2016_Oct_24_1403,59.9081874302,Gestalt_exp1,001,7333,
,Inverted-scrambled,images/i05.bmp,images/INVk05.bmp,,,,,0,61,61,33,,,,,,,right,0,left,0.533201932907,2016_Oct_24_1403,59.9081874302,Gestalt_exp1,001,7333,
,Gestalt-scrambled,images/i10.bmp,images/k10.bmp,,,,,0,62,62,9,,,,,,,right,1,right,0.550177097321,2016_Oct_24_1403,59.9081874302,Gestalt_exp1,001,7333,
,Inverted-Gestalt,images/k26.bmp,images/INVk26.bmp,,,,,0,63,63,71,,,,,,,left,0,right,0.566812038422,2016_Oct_24_1403,59.9081874302,Gestalt_exp1,001,7333,
,Inverted-Gestalt,images/k06.bmp,images/INVk06.bmp,,,,,0,64,64,57,,,,,,,right,0,left,0.117048978806,2016_Oct_24_1403,59.9081874302,Gestalt_exp1,001,7333,
,Inverted-Gestalt,images/k05.bmp,images/INVk05.bmp,,,,,0,65,65,56,,,,,,,right,0,left,0.416064977646,2016_Oct_24_1403,59.9081874302,Gestalt_exp1,001,7333,
,Gestalt-scrambled,images/i15.bmp,images/k15.bmp,,,,,0,66,66,14,,,,,,,right,0,left,0.43376994133,2016_Oct_24_1403,59.9081874302,Gestalt_exp1,001,7333,
,Gestalt-scrambled,images/i02.bmp,images/k02.bmp,,,,,0,67,67,1,,,,,,,right,0,left,0.416834115982,2016_Oct_24_1403,59.9081874302,Gestalt_exp1,001,7333,
,Inverted-scrambled,images/i15.bmp,images/INVk15.bmp,,,,,0,68,68,39,,,,,,,left,0,right,0.883733987808,2016_Oct_24_1403,59.9081874302,Gestalt_exp1,001,7333,
,Gestalt-scrambled,images/i14.bmp,images/k14.bmp,,,,,0,69,69,13,,,,,,,right,0,left,0.032763004303,2016_Oct_24_1403,59.9081874302,Gestalt_exp1,001,7333,
,Inverted-scrambled,images/i21.bmp,images/INVk21.bmp,,,,,0,70,70,43,,,,,,,right,0,left,2.66675305367,2016_Oct_24_1403,59.9081874302,Gestalt_exp1,001,7333,
,Gestalt-scrambled,images/i19.bmp,images/k19.bmp,,,,,0,71,71,18,,,,,,,left,0,right,0.383317947388,2016_Oct_24_1403,59.9081874302,Gestalt_exp1,001,7333,
,Inverted-scrambled,images/i27.bmp,images/INVk27.bmp,,,,,0,72,72,49,,,,,,,right,0,left,0.33349609375,2016_Oct_24_1403,59.9081874302,Gestalt_exp1,001,7333,
,Inverted-scrambled,images/i23.bmp,images/INVk23.bmp,,,,,0,73,73,45,,,,,,,right,1,right,0.450376033783,2016_Oct_24_1403,59.9081874302,Gestalt_exp1,001,7333,
,Inverted-scrambled,images/i30.bmp,images/INVk30.bmp,,,,,0,74,74,52,,,,,,,right,0,left,0.200153112411,2016_Oct_24_1403,59.9081874302,Gestalt_exp1,001,7333,
,Inverted-scrambled,images/i28.bmp,images/INVk28.bmp,,,,,0,75,75,50,,,,,,,left,0,right,0.900470018387,2016_Oct_24_1403,59.9081874302,Gestalt_exp1,001,7333,
