,images,condition,imgB,imgA,trials.thisRepN,trials.thisTrialN,trials.thisN,trials.thisIndex,numLoop.thisRepN,numLoop.thisTrialN,numLoop.thisN,numLoop.thisIndex,response.keys,response.rt,rating,rating.rt,key_resp_2.keys,key_resp_2.rt,numResp.keys,numResp.corr,numResp.Alocation,numResp.rt,date,frameRate,expName,session,participant,Unnamed: 27,img
1,images/k20.bmp,gestalt,,,0.0,0.0,0.0,19.0,,,,,,,3.0,8.569,,,,,,,2016_Oct_17_1007,59.9207685989,Gestalt_exp1,1,5635,,20
2,images/INVk14.bmp,inverted,,,0.0,1.0,1.0,68.0,,,,,,,5.0,10.069,,,,,,,2016_Oct_17_1007,59.9207685989,Gestalt_exp1,1,5635,,14
3,images/INVk23.bmp,inverted,,,0.0,2.0,2.0,75.0,,,,,,,6.0,8.569,,,,,,,2016_Oct_17_1007,59.9207685989,Gestalt_exp1,1,5635,,23
4,images/INVk30.bmp,inverted,,,0.0,3.0,3.0,82.0,,,,,,,7.0,2.835,,,,,,,2016_Oct_17_1007,59.9207685989,Gestalt_exp1,1,5635,,30
5,images/k23.bmp,gestalt,,,0.0,4.0,4.0,22.0,,,,,,,3.0,3.102,,,,,,,2016_Oct_17_1007,59.9207685989,Gestalt_exp1,1,5635,,23
6,images/i02.bmp,scrambled,,,0.0,5.0,5.0,31.0,,,,,,,3.0,3.952,,,,,,,2016_Oct_17_1007,59.9207685989,Gestalt_exp1,1,5635,,02
7,images/INVk16.bmp,inverted,,,0.0,6.0,6.0,70.0,,,,,,,2.0,3.352,,,,,,,2016_Oct_17_1007,59.9207685989,Gestalt_exp1,1,5635,,16
8,images/INVk26.bmp,inverted,,,0.0,7.0,7.0,78.0,,,,,,,7.0,3.519,,,,,,,2016_Oct_17_1007,59.9207685989,Gestalt_exp1,1,5635,,26
9,images/k01.bmp,gestalt,,,0.0,8.0,8.0,0.0,,,,,,,5.0,4.051,,,,,,,2016_Oct_17_1007,59.9207685989,Gestalt_exp1,1,5635,,01
10,images/i26.bmp,scrambled,,,0.0,9.0,9.0,55.0,,,,,,,7.0,2.651,,,,,,,2016_Oct_17_1007,59.9207685989,Gestalt_exp1,1,5635,,26
11,images/k21.bmp,gestalt,,,0.0,10.0,10.0,20.0,,,,,,,3.0,2.852,,,,,,,2016_Oct_17_1007,59.9207685989,Gestalt_exp1,1,5635,,21
12,images/i27.bmp,scrambled,,,0.0,11.0,11.0,56.0,,,,,,,2.0,2.068,,,,,,,2016_Oct_17_1007,59.9207685989,Gestalt_exp1,1,5635,,27
13,images/i30.bmp,scrambled,,,0.0,12.0,12.0,59.0,,,,,,,4.0,3.402,,,,,,,2016_Oct_17_1007,59.9207685989,Gestalt_exp1,1,5635,,30
14,images/i03.bmp,scrambled,,,0.0,13.0,13.0,32.0,,,,,,,2.0,1.852,,,,,,,2016_Oct_17_1007,59.9207685989,Gestalt_exp1,1,5635,,03
15,images/INVk18.bmp,inverted,,,0.0,14.0,14.0,71.0,,,,,,,5.0,2.468,,,,,,,2016_Oct_17_1007,59.9207685989,Gestalt_exp1,1,5635,,18
16,images/i05.bmp,scrambled,,,0.0,15.0,15.0,34.0,,,,,,,3.0,2.452,,,,,,,2016_Oct_17_1007,59.9207685989,Gestalt_exp1,1,5635,,05
17,images/INVk24.bmp,inverted,,,0.0,16.0,16.0,76.0,,,,,,,2.0,2.519,,,,,,,2016_Oct_17_1007,59.9207685989,Gestalt_exp1,1,5635,,24
18,images/INVk28.bmp,inverted,,,0.0,17.0,17.0,80.0,,,,,,,7.0,2.602,,,,,,,2016_Oct_17_1007,59.9207685989,Gestalt_exp1,1,5635,,28
19,images/k25.bmp,gestalt,,,0.0,18.0,18.0,24.0,,,,,,,6.0,1.885,,,,,,,2016_Oct_17_1007,59.9207685989,Gestalt_exp1,1,5635,,25
20,images/i06.bmp,scrambled,,,0.0,19.0,19.0,35.0,,,,,,,2.0,1.969,,,,,,,2016_Oct_17_1007,59.9207685989,Gestalt_exp1,1,5635,,06
21,images/i09.bmp,scrambled,,,0.0,20.0,20.0,38.0,,,,,,,7.0,2.419,,,,,,,2016_Oct_17_1007,59.9207685989,Gestalt_exp1,1,5635,,09
22,images/i22.bmp,scrambled,,,0.0,21.0,21.0,51.0,,,,,,,4.0,1.902,,,,,,,2016_Oct_17_1007,59.9207685989,Gestalt_exp1,1,5635,,22
23,images/i29.bmp,scrambled,,,0.0,22.0,22.0,58.0,,,,,,,2.0,2.735,,,,,,,2016_Oct_17_1007,59.9207685989,Gestalt_exp1,1,5635,,29
24,images/i07.bmp,scrambled,,,0.0,23.0,23.0,36.0,,,,,,,5.0,2.118,,,,,,,2016_Oct_17_1007,59.9207685989,Gestalt_exp1,1,5635,,07
25,images/i23.bmp,scrambled,,,0.0,24.0,24.0,52.0,,,,,,,3.0,2.269,,,,,,,2016_Oct_17_1007,59.9207685989,Gestalt_exp1,1,5635,,23
26,images/i20.bmp,scrambled,,,0.0,25.0,25.0,49.0,,,,,,,5.0,1.919,,,,,,,2016_Oct_17_1007,59.9207685989,Gestalt_exp1,1,5635,,20
27,images/k24.bmp,gestalt,,,0.0,26.0,26.0,23.0,,,,,,,2.0,2.285,,,,,,,2016_Oct_17_1007,59.9207685989,Gestalt_exp1,1,5635,,24
28,images/INVk21.bmp,inverted,,,0.0,27.0,27.0,73.0,,,,,,,6.0,1.802,,,,,,,2016_Oct_17_1007,59.9207685989,Gestalt_exp1,1,5635,,21
29,images/k03.bmp,gestalt,,,0.0,28.0,28.0,2.0,,,,,,,5.0,2.985,,,,,,,2016_Oct_17_1007,59.9207685989,Gestalt_exp1,1,5635,,03
30,images/i25.bmp,scrambled,,,0.0,29.0,29.0,54.0,,,,,,,4.0,2.152,,,,,,,2016_Oct_17_1007,59.9207685989,Gestalt_exp1,1,5635,,25
31,images/INVk29.bmp,inverted,,,0.0,30.0,30.0,81.0,,,,,,,3.0,1.902,,,,,,,2016_Oct_17_1007,59.9207685989,Gestalt_exp1,1,5635,,29
32,images/i18.bmp,scrambled,,,0.0,31.0,31.0,47.0,,,,,,,6.0,2.185,,,,,,,2016_Oct_17_1007,59.9207685989,Gestalt_exp1,1,5635,,18
33,images/k26.bmp,gestalt,,,0.0,32.0,32.0,25.0,,,,,,,8.0,2.201,,,,,,,2016_Oct_17_1007,59.9207685989,Gestalt_exp1,1,5635,,26
34,images/i19.bmp,scrambled,,,0.0,33.0,33.0,48.0,,,,,,,5.0,3.719,,,,,,,2016_Oct_17_1007,59.9207685989,Gestalt_exp1,1,5635,,19
35,images/k28.bmp,gestalt,,,0.0,34.0,34.0,27.0,,,,,,,6.0,2.869,,,,,,,2016_Oct_17_1007,59.9207685989,Gestalt_exp1,1,5635,,28
36,images/k13.bmp,gestalt,,,0.0,35.0,35.0,12.0,,,,,,,7.0,2.519,,,,,,,2016_Oct_17_1007,59.9207685989,Gestalt_exp1,1,5635,,13
37,images/k12.bmp,gestalt,,,0.0,36.0,36.0,11.0,,,,,,,5.0,2.969,,,,,,,2016_Oct_17_1007,59.9207685989,Gestalt_exp1,1,5635,,12
38,images/k06.bmp,gestalt,,,0.0,37.0,37.0,5.0,,,,,,,8.0,2.67,,,,,,,2016_Oct_17_1007,59.9207685989,Gestalt_exp1,1,5635,,06
39,images/i08.bmp,scrambled,,,0.0,38.0,38.0,37.0,,,,,,,6.0,2.302,,,,,,,2016_Oct_17_1007,59.9207685989,Gestalt_exp1,1,5635,,08
40,images/k11.bmp,gestalt,,,0.0,39.0,39.0,10.0,,,,,,,3.0,2.385,,,,,,,2016_Oct_17_1007,59.9207685989,Gestalt_exp1,1,5635,,11
41,images/INVk06.bmp,inverted,,,0.0,40.0,40.0,64.0,,,,,,,8.0,2.069,,,,,,,2016_Oct_17_1007,59.9207685989,Gestalt_exp1,1,5635,,06
42,images/INVk09.bmp,inverted,,,0.0,41.0,41.0,65.0,,,,,,,7.0,1.92,,,,,,,2016_Oct_17_1007,59.9207685989,Gestalt_exp1,1,5635,,09
43,images/k29.bmp,gestalt,,,0.0,42.0,42.0,28.0,,,,,,,4.0,2.785,,,,,,,2016_Oct_17_1007,59.9207685989,Gestalt_exp1,1,5635,,29
44,images/k10.bmp,gestalt,,,0.0,43.0,43.0,9.0,,,,,,,3.0,2.553,,,,,,,2016_Oct_17_1007,59.9207685989,Gestalt_exp1,1,5635,,10
45,images/INVk27.bmp,inverted,,,0.0,44.0,44.0,79.0,,,,,,,6.0,2.785,,,,,,,2016_Oct_17_1007,59.9207685989,Gestalt_exp1,1,5635,,27
46,images/k27.bmp,gestalt,,,0.0,45.0,45.0,26.0,,,,,,,6.0,2.435,,,,,,,2016_Oct_17_1007,59.9207685989,Gestalt_exp1,1,5635,,27
47,images/INVk10.bmp,inverted,,,0.0,46.0,46.0,66.0,,,,,,,3.0,2.769,,,,,,,2016_Oct_17_1007,59.9207685989,Gestalt_exp1,1,5635,,10
48,images/k16.bmp,gestalt,,,0.0,47.0,47.0,15.0,,,,,,,2.0,1.519,,,,,,,2016_Oct_17_1007,59.9207685989,Gestalt_exp1,1,5635,,16
49,images/i16.bmp,scrambled,,,0.0,48.0,48.0,45.0,,,,,,,2.0,1.636,,,,,,,2016_Oct_17_1007,59.9207685989,Gestalt_exp1,1,5635,,16
50,images/k09.bmp,gestalt,,,0.0,49.0,49.0,8.0,,,,,,,6.0,2.053,,,,,,,2016_Oct_17_1007,59.9207685989,Gestalt_exp1,1,5635,,09
51,images/i14.bmp,scrambled,,,0.0,50.0,50.0,43.0,,,,,,,7.0,1.552,,,,,,,2016_Oct_17_1007,59.9207685989,Gestalt_exp1,1,5635,,14
52,images/i13.bmp,scrambled,,,0.0,51.0,51.0,42.0,,,,,,,8.0,1.418,,,,,,,2016_Oct_17_1007,59.9207685989,Gestalt_exp1,1,5635,,13
53,images/k02.bmp,gestalt,,,0.0,52.0,52.0,1.0,,,,,,,5.0,1.585,,,,,,,2016_Oct_17_1007,59.9207685989,Gestalt_exp1,1,5635,,02
54,images/i15.bmp,scrambled,,,0.0,53.0,53.0,44.0,,,,,,,4.0,1.619,,,,,,,2016_Oct_17_1007,59.9207685989,Gestalt_exp1,1,5635,,15
55,images/INVk25.bmp,inverted,,,0.0,54.0,54.0,77.0,,,,,,,5.0,2.202,,,,,,,2016_Oct_17_1007,59.9207685989,Gestalt_exp1,1,5635,,25
56,images/INVk12.bmp,inverted,,,0.0,55.0,55.0,67.0,,,,,,,5.0,1.852,,,,,,,2016_Oct_17_1007,59.9207685989,Gestalt_exp1,1,5635,,12
57,images/i11.bmp,scrambled,,,0.0,56.0,56.0,40.0,,,,,,,2.0,2.136,,,,,,,2016_Oct_17_1007,59.9207685989,Gestalt_exp1,1,5635,,11
58,images/k17.bmp,gestalt,,,0.0,57.0,57.0,16.0,,,,,,,2.0,1.802,,,,,,,2016_Oct_17_1007,59.9207685989,Gestalt_exp1,1,5635,,17
59,images/INVk19.bmp,inverted,,,0.0,58.0,58.0,72.0,,,,,,,4.0,2.419,,,,,,,2016_Oct_17_1007,59.9207685989,Gestalt_exp1,1,5635,,19
60,images/INVk01.bmp,inverted,,,0.0,59.0,59.0,60.0,,,,,,,4.0,1.352,,,,,,,2016_Oct_17_1007,59.9207685989,Gestalt_exp1,1,5635,,01
61,images/k30.bmp,gestalt,,,0.0,60.0,60.0,29.0,,,,,,,8.0,1.769,,,,,,,2016_Oct_17_1007,59.9207685989,Gestalt_exp1,1,5635,,30
62,images/INVk04.bmp,inverted,,,0.0,61.0,61.0,62.0,,,,,,,7.0,2.119,,,,,,,2016_Oct_17_1007,59.9207685989,Gestalt_exp1,1,5635,,04
63,images/k15.bmp,gestalt,,,0.0,62.0,62.0,14.0,,,,,,,2.0,2.418,,,,,,,2016_Oct_17_1007,59.9207685989,Gestalt_exp1,1,5635,,15
64,images/INVk15.bmp,inverted,,,0.0,63.0,63.0,69.0,,,,,,,3.0,1.952,,,,,,,2016_Oct_17_1007,59.9207685989,Gestalt_exp1,1,5635,,15
65,images/k04.bmp,gestalt,,,0.0,64.0,64.0,3.0,,,,,,,7.0,1.936,,,,,,,2016_Oct_17_1007,59.9207685989,Gestalt_exp1,1,5635,,04
66,images/i10.bmp,scrambled,,,0.0,65.0,65.0,39.0,,,,,,,5.0,2.251,,,,,,,2016_Oct_17_1007,59.9207685989,Gestalt_exp1,1,5635,,10
67,images/i01.bmp,scrambled,,,0.0,66.0,66.0,30.0,,,,,,,2.0,1.985,,,,,,,2016_Oct_17_1007,59.9207685989,Gestalt_exp1,1,5635,,01
68,images/i17.bmp,scrambled,,,0.0,67.0,67.0,46.0,,,,,,,1.0,2.568,,,,,,,2016_Oct_17_1007,59.9207685989,Gestalt_exp1,1,5635,,17
69,images/k19.bmp,gestalt,,,0.0,68.0,68.0,18.0,,,,,,,4.0,1.902,,,,,,,2016_Oct_17_1007,59.9207685989,Gestalt_exp1,1,5635,,19
70,images/i12.bmp,scrambled,,,0.0,69.0,69.0,41.0,,,,,,,6.0,1.736,,,,,,,2016_Oct_17_1007,59.9207685989,Gestalt_exp1,1,5635,,12
71,images/i04.bmp,scrambled,,,0.0,70.0,70.0,33.0,,,,,,,6.0,1.368,,,,,,,2016_Oct_17_1007,59.9207685989,Gestalt_exp1,1,5635,,04
72,images/k05.bmp,gestalt,,,0.0,71.0,71.0,4.0,,,,,,,6.0,2.168,,,,,,,2016_Oct_17_1007,59.9207685989,Gestalt_exp1,1,5635,,05
73,images/i28.bmp,scrambled,,,0.0,72.0,72.0,57.0,,,,,,,4.0,2.118,,,,,,,2016_Oct_17_1007,59.9207685989,Gestalt_exp1,1,5635,,28
74,images/k14.bmp,gestalt,,,0.0,73.0,73.0,13.0,,,,,,,8.0,2.519,,,,,,,2016_Oct_17_1007,59.9207685989,Gestalt_exp1,1,5635,,14
75,images/INVk05.bmp,inverted,,,0.0,74.0,74.0,63.0,,,,,,,7.0,2.452,,,,,,,2016_Oct_17_1007,59.9207685989,Gestalt_exp1,1,5635,,05
76,images/k08.bmp,gestalt,,,0.0,75.0,75.0,7.0,,,,,,,7.0,1.552,,,,,,,2016_Oct_17_1007,59.9207685989,Gestalt_exp1,1,5635,,08
77,images/i21.bmp,scrambled,,,0.0,76.0,76.0,50.0,,,,,,,5.0,2.752,,,,,,,2016_Oct_17_1007,59.9207685989,Gestalt_exp1,1,5635,,21
78,images/k22.bmp,gestalt,,,0.0,77.0,77.0,21.0,,,,,,,2.0,1.769,,,,,,,2016_Oct_17_1007,59.9207685989,Gestalt_exp1,1,5635,,22
79,images/k18.bmp,gestalt,,,0.0,78.0,78.0,17.0,,,,,,,5.0,1.918,,,,,,,2016_Oct_17_1007,59.9207685989,Gestalt_exp1,1,5635,,18
80,images/k07.bmp,gestalt,,,0.0,79.0,79.0,6.0,,,,,,,6.0,1.651,,,,,,,2016_Oct_17_1007,59.9207685989,Gestalt_exp1,1,5635,,07
81,images/INVk22.bmp,inverted,,,0.0,80.0,80.0,74.0,,,,,,,1.0,1.719,,,,,,,2016_Oct_17_1007,59.9207685989,Gestalt_exp1,1,5635,,22
82,images/i24.bmp,scrambled,,,0.0,81.0,81.0,53.0,,,,,,,2.0,1.635,,,,,,,2016_Oct_17_1007,59.9207685989,Gestalt_exp1,1,5635,,24
83,images/INVk03.bmp,inverted,,,0.0,82.0,82.0,61.0,,,,,,,4.0,1.685,,,,,,,2016_Oct_17_1007,59.9207685989,Gestalt_exp1,1,5635,,03
162,images/k25.bmp,gestalt,,,0.0,0.0,0.0,24.0,,,,,,,5.0,7.103,,,,,,,2016_Oct_24_1403,59.9081874302,Gestalt_exp1,1,7333,,25
163,images/k18.bmp,gestalt,,,0.0,1.0,1.0,17.0,,,,,,,5.0,4.852,,,,,,,2016_Oct_24_1403,59.9081874302,Gestalt_exp1,1,7333,,18
164,images/INVk14.bmp,inverted,,,0.0,2.0,2.0,68.0,,,,,,,5.0,2.902,,,,,,,2016_Oct_24_1403,59.9081874302,Gestalt_exp1,1,7333,,14
165,images/INVk10.bmp,inverted,,,0.0,3.0,3.0,66.0,,,,,,,5.0,2.269,,,,,,,2016_Oct_24_1403,59.9081874302,Gestalt_exp1,1,7333,,10
166,images/i27.bmp,scrambled,,,0.0,4.0,4.0,56.0,,,,,,,4.0,4.102,,,,,,,2016_Oct_24_1403,59.9081874302,Gestalt_exp1,1,7333,,27
167,images/i17.bmp,scrambled,,,0.0,5.0,5.0,46.0,,,,,,,5.0,2.068,,,,,,,2016_Oct_24_1403,59.9081874302,Gestalt_exp1,1,7333,,17
168,images/INVk19.bmp,inverted,,,0.0,6.0,6.0,72.0,,,,,,,5.0,1.868,,,,,,,2016_Oct_24_1403,59.9081874302,Gestalt_exp1,1,7333,,19
169,images/i13.bmp,scrambled,,,0.0,7.0,7.0,42.0,,,,,,,4.0,2.635,,,,,,,2016_Oct_24_1403,59.9081874302,Gestalt_exp1,1,7333,,13
170,images/k28.bmp,gestalt,,,0.0,8.0,8.0,27.0,,,,,,,4.0,1.585,,,,,,,2016_Oct_24_1403,59.9081874302,Gestalt_exp1,1,7333,,28
171,images/i25.bmp,scrambled,,,0.0,9.0,9.0,54.0,,,,,,,4.0,2.102,,,,,,,2016_Oct_24_1403,59.9081874302,Gestalt_exp1,1,7333,,25
172,images/k19.bmp,gestalt,,,0.0,10.0,10.0,18.0,,,,,,,5.0,1.835,,,,,,,2016_Oct_24_1403,59.9081874302,Gestalt_exp1,1,7333,,19
173,images/i12.bmp,scrambled,,,0.0,11.0,11.0,41.0,,,,,,,4.0,4.085,,,,,,,2016_Oct_24_1403,59.9081874302,Gestalt_exp1,1,7333,,12
174,images/INVk16.bmp,inverted,,,0.0,12.0,12.0,70.0,,,,,,,4.0,2.002,,,,,,,2016_Oct_24_1403,59.9081874302,Gestalt_exp1,1,7333,,16
175,images/i02.bmp,scrambled,,,0.0,13.0,13.0,31.0,,,,,,,3.0,1.718,,,,,,,2016_Oct_24_1403,59.9081874302,Gestalt_exp1,1,7333,,02
176,images/k27.bmp,gestalt,,,0.0,14.0,14.0,26.0,,,,,,,5.0,3.368,,,,,,,2016_Oct_24_1403,59.9081874302,Gestalt_exp1,1,7333,,27
177,images/i24.bmp,scrambled,,,0.0,15.0,15.0,53.0,,,,,,,5.0,2.619,,,,,,,2016_Oct_24_1403,59.9081874302,Gestalt_exp1,1,7333,,24
178,images/i06.bmp,scrambled,,,0.0,16.0,16.0,35.0,,,,,,,4.0,1.819,,,,,,,2016_Oct_24_1403,59.9081874302,Gestalt_exp1,1,7333,,06
179,images/k12.bmp,gestalt,,,0.0,17.0,17.0,11.0,,,,,,,5.0,2.819,,,,,,,2016_Oct_24_1403,59.9081874302,Gestalt_exp1,1,7333,,12
180,images/k24.bmp,gestalt,,,0.0,18.0,18.0,23.0,,,,,,,5.0,2.952,,,,,,,2016_Oct_24_1403,59.9081874302,Gestalt_exp1,1,7333,,24
181,images/k14.bmp,gestalt,,,0.0,19.0,19.0,13.0,,,,,,,5.0,2.735,,,,,,,2016_Oct_24_1403,59.9081874302,Gestalt_exp1,1,7333,,14
182,images/INVk09.bmp,inverted,,,0.0,20.0,20.0,65.0,,,,,,,5.0,1.969,,,,,,,2016_Oct_24_1403,59.9081874302,Gestalt_exp1,1,7333,,09
183,images/i18.bmp,scrambled,,,0.0,21.0,21.0,47.0,,,,,,,5.0,1.668,,,,,,,2016_Oct_24_1403,59.9081874302,Gestalt_exp1,1,7333,,18
184,images/i08.bmp,scrambled,,,0.0,22.0,22.0,37.0,,,,,,,4.0,1.719,,,,,,,2016_Oct_24_1403,59.9081874302,Gestalt_exp1,1,7333,,08
185,images/INVk12.bmp,inverted,,,0.0,23.0,23.0,67.0,,,,,,,4.0,2.302,,,,,,,2016_Oct_24_1403,59.9081874302,Gestalt_exp1,1,7333,,12
186,images/k09.bmp,gestalt,,,0.0,24.0,24.0,8.0,,,,,,,4.0,1.852,,,,,,,2016_Oct_24_1403,59.9081874302,Gestalt_exp1,1,7333,,09
187,images/INVk04.bmp,inverted,,,0.0,25.0,25.0,62.0,,,,,,,5.0,1.67,,,,,,,2016_Oct_24_1403,59.9081874302,Gestalt_exp1,1,7333,,04
188,images/i05.bmp,scrambled,,,0.0,26.0,26.0,34.0,,,,,,,5.0,1.802,,,,,,,2016_Oct_24_1403,59.9081874302,Gestalt_exp1,1,7333,,05
189,images/INVk28.bmp,inverted,,,0.0,27.0,27.0,80.0,,,,,,,5.0,1.552,,,,,,,2016_Oct_24_1403,59.9081874302,Gestalt_exp1,1,7333,,28
190,images/k06.bmp,gestalt,,,0.0,28.0,28.0,5.0,,,,,,,4.0,2.185,,,,,,,2016_Oct_24_1403,59.9081874302,Gestalt_exp1,1,7333,,06
191,images/INVk06.bmp,inverted,,,0.0,29.0,29.0,64.0,,,,,,,4.0,1.636,,,,,,,2016_Oct_24_1403,59.9081874302,Gestalt_exp1,1,7333,,06
192,images/i28.bmp,scrambled,,,0.0,30.0,30.0,57.0,,,,,,,5.0,2.085,,,,,,,2016_Oct_24_1403,59.9081874302,Gestalt_exp1,1,7333,,28
193,images/i23.bmp,scrambled,,,0.0,31.0,31.0,52.0,,,,,,,6.0,2.536,,,,,,,2016_Oct_24_1403,59.9081874302,Gestalt_exp1,1,7333,,23
194,images/i03.bmp,scrambled,,,0.0,32.0,32.0,32.0,,,,,,,6.0,1.486,,,,,,,2016_Oct_24_1403,59.9081874302,Gestalt_exp1,1,7333,,03
195,images/INVk21.bmp,inverted,,,0.0,33.0,33.0,73.0,,,,,,,4.0,1.736,,,,,,,2016_Oct_24_1403,59.9081874302,Gestalt_exp1,1,7333,,21
196,images/INVk18.bmp,inverted,,,0.0,34.0,34.0,71.0,,,,,,,5.0,1.785,,,,,,,2016_Oct_24_1403,59.9081874302,Gestalt_exp1,1,7333,,18
197,images/INVk26.bmp,inverted,,,0.0,35.0,35.0,78.0,,,,,,,5.0,1.986,,,,,,,2016_Oct_24_1403,59.9081874302,Gestalt_exp1,1,7333,,26
198,images/k22.bmp,gestalt,,,0.0,36.0,36.0,21.0,,,,,,,5.0,2.719,,,,,,,2016_Oct_24_1403,59.9081874302,Gestalt_exp1,1,7333,,22
199,images/INVk30.bmp,inverted,,,0.0,37.0,37.0,82.0,,,,,,,5.0,2.034,,,,,,,2016_Oct_24_1403,59.9081874302,Gestalt_exp1,1,7333,,30
200,images/i29.bmp,scrambled,,,0.0,38.0,38.0,58.0,,,,,,,5.0,2.019,,,,,,,2016_Oct_24_1403,59.9081874302,Gestalt_exp1,1,7333,,29
201,images/k26.bmp,gestalt,,,0.0,39.0,39.0,25.0,,,,,,,5.0,1.885,,,,,,,2016_Oct_24_1403,59.9081874302,Gestalt_exp1,1,7333,,26
202,images/k03.bmp,gestalt,,,0.0,40.0,40.0,2.0,,,,,,,6.0,2.069,,,,,,,2016_Oct_24_1403,59.9081874302,Gestalt_exp1,1,7333,,03
203,images/i01.bmp,scrambled,,,0.0,41.0,41.0,30.0,,,,,,,5.0,1.602,,,,,,,2016_Oct_24_1403,59.9081874302,Gestalt_exp1,1,7333,,01
204,images/k07.bmp,gestalt,,,0.0,42.0,42.0,6.0,,,,,,,5.0,2.102,,,,,,,2016_Oct_24_1403,59.9081874302,Gestalt_exp1,1,7333,,07
205,images/i16.bmp,scrambled,,,0.0,43.0,43.0,45.0,,,,,,,6.0,1.736,,,,,,,2016_Oct_24_1403,59.9081874302,Gestalt_exp1,1,7333,,16
206,images/i21.bmp,scrambled,,,0.0,44.0,44.0,50.0,,,,,,,4.0,1.451,,,,,,,2016_Oct_24_1403,59.9081874302,Gestalt_exp1,1,7333,,21
207,images/k04.bmp,gestalt,,,0.0,45.0,45.0,3.0,,,,,,,4.0,1.668,,,,,,,2016_Oct_24_1403,59.9081874302,Gestalt_exp1,1,7333,,04
208,images/INVk03.bmp,inverted,,,0.0,46.0,46.0,61.0,,,,,,,5.0,1.519,,,,,,,2016_Oct_24_1403,59.9081874302,Gestalt_exp1,1,7333,,03
209,images/INVk01.bmp,inverted,,,0.0,47.0,47.0,60.0,,,,,,,5.0,2.702,,,,,,,2016_Oct_24_1403,59.9081874302,Gestalt_exp1,1,7333,,01
210,images/INVk23.bmp,inverted,,,0.0,48.0,48.0,75.0,,,,,,,5.0,2.736,,,,,,,2016_Oct_24_1403,59.9081874302,Gestalt_exp1,1,7333,,23
211,images/INVk05.bmp,inverted,,,0.0,49.0,49.0,63.0,,,,,,,5.0,2.585,,,,,,,2016_Oct_24_1403,59.9081874302,Gestalt_exp1,1,7333,,05
212,images/k29.bmp,gestalt,,,0.0,50.0,50.0,28.0,,,,,,,5.0,3.002,,,,,,,2016_Oct_24_1403,59.9081874302,Gestalt_exp1,1,7333,,29
213,images/i09.bmp,scrambled,,,0.0,51.0,51.0,38.0,,,,,,,5.0,3.085,,,,,,,2016_Oct_24_1403,59.9081874302,Gestalt_exp1,1,7333,,09
214,images/k10.bmp,gestalt,,,0.0,52.0,52.0,9.0,,,,,,,5.0,2.335,,,,,,,2016_Oct_24_1403,59.9081874302,Gestalt_exp1,1,7333,,10
215,images/k13.bmp,gestalt,,,0.0,53.0,53.0,12.0,,,,,,,4.0,2.152,,,,,,,2016_Oct_24_1403,59.9081874302,Gestalt_exp1,1,7333,,13
216,images/i07.bmp,scrambled,,,0.0,54.0,54.0,36.0,,,,,,,4.0,2.069,,,,,,,2016_Oct_24_1403,59.9081874302,Gestalt_exp1,1,7333,,07
217,images/INVk25.bmp,inverted,,,0.0,55.0,55.0,77.0,,,,,,,5.0,1.636,,,,,,,2016_Oct_24_1403,59.9081874302,Gestalt_exp1,1,7333,,25
218,images/INVk29.bmp,inverted,,,0.0,56.0,56.0,81.0,,,,,,,5.0,2.852,,,,,,,2016_Oct_24_1403,59.9081874302,Gestalt_exp1,1,7333,,29
219,images/k16.bmp,gestalt,,,0.0,57.0,57.0,15.0,,,,,,,5.0,1.768,,,,,,,2016_Oct_24_1403,59.9081874302,Gestalt_exp1,1,7333,,16
220,images/i22.bmp,scrambled,,,0.0,58.0,58.0,51.0,,,,,,,5.0,1.834,,,,,,,2016_Oct_24_1403,59.9081874302,Gestalt_exp1,1,7333,,22
221,images/k20.bmp,gestalt,,,0.0,59.0,59.0,19.0,,,,,,,5.0,1.636,,,,,,,2016_Oct_24_1403,59.9081874302,Gestalt_exp1,1,7333,,20
222,images/i04.bmp,scrambled,,,0.0,60.0,60.0,33.0,,,,,,,4.0,1.67,,,,,,,2016_Oct_24_1403,59.9081874302,Gestalt_exp1,1,7333,,04
223,images/k05.bmp,gestalt,,,0.0,61.0,61.0,4.0,,,,,,,5.0,1.585,,,,,,,2016_Oct_24_1403,59.9081874302,Gestalt_exp1,1,7333,,05
224,images/k21.bmp,gestalt,,,0.0,62.0,62.0,20.0,,,,,,,5.0,1.753,,,,,,,2016_Oct_24_1403,59.9081874302,Gestalt_exp1,1,7333,,21
225,images/INVk27.bmp,inverted,,,0.0,63.0,63.0,79.0,,,,,,,5.0,2.17,,,,,,,2016_Oct_24_1403,59.9081874302,Gestalt_exp1,1,7333,,27
226,images/INVk15.bmp,inverted,,,0.0,64.0,64.0,69.0,,,,,,,5.0,1.719,,,,,,,2016_Oct_24_1403,59.9081874302,Gestalt_exp1,1,7333,,15
227,images/i30.bmp,scrambled,,,0.0,65.0,65.0,59.0,,,,,,,5.0,2.435,,,,,,,2016_Oct_24_1403,59.9081874302,Gestalt_exp1,1,7333,,30
228,images/k11.bmp,gestalt,,,0.0,66.0,66.0,10.0,,,,,,,4.0,1.736,,,,,,,2016_Oct_24_1403,59.9081874302,Gestalt_exp1,1,7333,,11
229,images/i11.bmp,scrambled,,,0.0,67.0,67.0,40.0,,,,,,,5.0,2.652,,,,,,,2016_Oct_24_1403,59.9081874302,Gestalt_exp1,1,7333,,11
230,images/i20.bmp,scrambled,,,0.0,68.0,68.0,49.0,,,,,,,5.0,2.652,,,,,,,2016_Oct_24_1403,59.9081874302,Gestalt_exp1,1,7333,,20
231,images/INVk24.bmp,inverted,,,0.0,69.0,69.0,76.0,,,,,,,6.0,2.468,,,,,,,2016_Oct_24_1403,59.9081874302,Gestalt_exp1,1,7333,,24
232,images/k23.bmp,gestalt,,,0.0,70.0,70.0,22.0,,,,,,,5.0,1.534,,,,,,,2016_Oct_24_1403,59.9081874302,Gestalt_exp1,1,7333,,23
233,images/k02.bmp,gestalt,,,0.0,71.0,71.0,1.0,,,,,,,4.0,1.852,,,,,,,2016_Oct_24_1403,59.9081874302,Gestalt_exp1,1,7333,,02
234,images/i19.bmp,scrambled,,,0.0,72.0,72.0,48.0,,,,,,,5.0,1.585,,,,,,,2016_Oct_24_1403,59.9081874302,Gestalt_exp1,1,7333,,19
235,images/INVk22.bmp,inverted,,,0.0,73.0,73.0,74.0,,,,,,,5.0,1.619,,,,,,,2016_Oct_24_1403,59.9081874302,Gestalt_exp1,1,7333,,22
236,images/k01.bmp,gestalt,,,0.0,74.0,74.0,0.0,,,,,,,5.0,2.035,,,,,,,2016_Oct_24_1403,59.9081874302,Gestalt_exp1,1,7333,,01
237,images/k15.bmp,gestalt,,,0.0,75.0,75.0,14.0,,,,,,,5.0,1.869,,,,,,,2016_Oct_24_1403,59.9081874302,Gestalt_exp1,1,7333,,15
238,images/k08.bmp,gestalt,,,0.0,76.0,76.0,7.0,,,,,,,4.0,1.702,,,,,,,2016_Oct_24_1403,59.9081874302,Gestalt_exp1,1,7333,,08
239,images/k30.bmp,gestalt,,,0.0,77.0,77.0,29.0,,,,,,,5.0,1.586,,,,,,,2016_Oct_24_1403,59.9081874302,Gestalt_exp1,1,7333,,30
240,images/i15.bmp,scrambled,,,0.0,78.0,78.0,44.0,,,,,,,5.0,1.702,,,,,,,2016_Oct_24_1403,59.9081874302,Gestalt_exp1,1,7333,,15
241,images/i10.bmp,scrambled,,,0.0,79.0,79.0,39.0,,,,,,,5.0,1.802,,,,,,,2016_Oct_24_1403,59.9081874302,Gestalt_exp1,1,7333,,10
242,images/i26.bmp,scrambled,,,0.0,80.0,80.0,55.0,,,,,,,5.0,1.719,,,,,,,2016_Oct_24_1403,59.9081874302,Gestalt_exp1,1,7333,,26
243,images/i14.bmp,scrambled,,,0.0,81.0,81.0,43.0,,,,,,,5.0,1.67,,,,,,,2016_Oct_24_1403,59.9081874302,Gestalt_exp1,1,7333,,14
244,images/k17.bmp,gestalt,,,0.0,82.0,82.0,16.0,,,,,,,6.0,1.602,,,,,,,2016_Oct_24_1403,59.9081874302,Gestalt_exp1,1,7333,,17
323,images/INVk27.bmp,inverted,,,0.0,0.0,0.0,79.0,,,,,,,1.0,6.452,,,,,,,2016_Oct_17_1508,59.7289465027,Gestalt_exp1,1,7576,,27
324,images/k15.bmp,gestalt,,,0.0,1.0,1.0,14.0,,,,,,,2.0,1.819,,,,,,,2016_Oct_17_1508,59.7289465027,Gestalt_exp1,1,7576,,15
325,images/INVk30.bmp,inverted,,,0.0,2.0,2.0,82.0,,,,,,,2.0,3.052,,,,,,,2016_Oct_17_1508,59.7289465027,Gestalt_exp1,1,7576,,30
326,images/k11.bmp,gestalt,,,0.0,3.0,3.0,10.0,,,,,,,1.0,1.52,,,,,,,2016_Oct_17_1508,59.7289465027,Gestalt_exp1,1,7576,,11
327,images/k04.bmp,gestalt,,,0.0,4.0,4.0,3.0,,,,,,,2.0,1.186,,,,,,,2016_Oct_17_1508,59.7289465027,Gestalt_exp1,1,7576,,04
328,images/INVk22.bmp,inverted,,,0.0,5.0,5.0,74.0,,,,,,,2.0,3.302,,,,,,,2016_Oct_17_1508,59.7289465027,Gestalt_exp1,1,7576,,22
329,images/k01.bmp,gestalt,,,0.0,6.0,6.0,0.0,,,,,,,2.0,1.985,,,,,,,2016_Oct_17_1508,59.7289465027,Gestalt_exp1,1,7576,,01
330,images/INVk01.bmp,inverted,,,0.0,7.0,7.0,60.0,,,,,,,2.0,1.919,,,,,,,2016_Oct_17_1508,59.7289465027,Gestalt_exp1,1,7576,,01
331,images/i22.bmp,scrambled,,,0.0,8.0,8.0,51.0,,,,,,,3.0,1.636,,,,,,,2016_Oct_17_1508,59.7289465027,Gestalt_exp1,1,7576,,22
332,images/i28.bmp,scrambled,,,0.0,9.0,9.0,57.0,,,,,,,3.0,1.286,,,,,,,2016_Oct_17_1508,59.7289465027,Gestalt_exp1,1,7576,,28
333,images/k10.bmp,gestalt,,,0.0,10.0,10.0,9.0,,,,,,,2.0,1.769,,,,,,,2016_Oct_17_1508,59.7289465027,Gestalt_exp1,1,7576,,10
334,images/INVk06.bmp,inverted,,,0.0,11.0,11.0,64.0,,,,,,,2.0,1.619,,,,,,,2016_Oct_17_1508,59.7289465027,Gestalt_exp1,1,7576,,06
335,images/INVk18.bmp,inverted,,,0.0,12.0,12.0,71.0,,,,,,,3.0,1.486,,,,,,,2016_Oct_17_1508,59.7289465027,Gestalt_exp1,1,7576,,18
336,images/k21.bmp,gestalt,,,0.0,13.0,13.0,20.0,,,,,,,2.0,1.668,,,,,,,2016_Oct_17_1508,59.7289465027,Gestalt_exp1,1,7576,,21
337,images/k03.bmp,gestalt,,,0.0,14.0,14.0,2.0,,,,,,,2.0,1.635,,,,,,,2016_Oct_17_1508,59.7289465027,Gestalt_exp1,1,7576,,03
338,images/i18.bmp,scrambled,,,0.0,15.0,15.0,47.0,,,,,,,2.0,1.336,,,,,,,2016_Oct_17_1508,59.7289465027,Gestalt_exp1,1,7576,,18
339,images/INVk25.bmp,inverted,,,0.0,16.0,16.0,77.0,,,,,,,2.0,4.186,,,,,,,2016_Oct_17_1508,59.7289465027,Gestalt_exp1,1,7576,,25
340,images/k18.bmp,gestalt,,,0.0,17.0,17.0,17.0,,,,,,,2.0,1.085,,,,,,,2016_Oct_17_1508,59.7289465027,Gestalt_exp1,1,7576,,18
341,images/k09.bmp,gestalt,,,0.0,18.0,18.0,8.0,,,,,,,3.0,1.419,,,,,,,2016_Oct_17_1508,59.7289465027,Gestalt_exp1,1,7576,,09
342,images/i19.bmp,scrambled,,,0.0,19.0,19.0,48.0,,,,,,,2.0,1.003,,,,,,,2016_Oct_17_1508,59.7289465027,Gestalt_exp1,1,7576,,19
343,images/k30.bmp,gestalt,,,0.0,20.0,20.0,29.0,,,,,,,3.0,1.519,,,,,,,2016_Oct_17_1508,59.7289465027,Gestalt_exp1,1,7576,,30
344,images/i29.bmp,scrambled,,,0.0,21.0,21.0,58.0,,,,,,,2.0,1.002,,,,,,,2016_Oct_17_1508,59.7289465027,Gestalt_exp1,1,7576,,29
345,images/i27.bmp,scrambled,,,0.0,22.0,22.0,56.0,,,,,,,2.0,1.652,,,,,,,2016_Oct_17_1508,59.7289465027,Gestalt_exp1,1,7576,,27
346,images/INVk19.bmp,inverted,,,0.0,23.0,23.0,72.0,,,,,,,2.0,1.252,,,,,,,2016_Oct_17_1508,59.7289465027,Gestalt_exp1,1,7576,,19
347,images/INVk09.bmp,inverted,,,0.0,24.0,24.0,65.0,,,,,,,2.0,1.534,,,,,,,2016_Oct_17_1508,59.7289465027,Gestalt_exp1,1,7576,,09
348,images/i03.bmp,scrambled,,,0.0,25.0,25.0,32.0,,,,,,,2.0,1.885,,,,,,,2016_Oct_17_1508,59.7289465027,Gestalt_exp1,1,7576,,03
349,images/i07.bmp,scrambled,,,0.0,26.0,26.0,36.0,,,,,,,3.0,1.802,,,,,,,2016_Oct_17_1508,59.7289465027,Gestalt_exp1,1,7576,,07
350,images/i21.bmp,scrambled,,,0.0,27.0,27.0,50.0,,,,,,,2.0,1.268,,,,,,,2016_Oct_17_1508,59.7289465027,Gestalt_exp1,1,7576,,21
351,images/k07.bmp,gestalt,,,0.0,28.0,28.0,6.0,,,,,,,3.0,1.369,,,,,,,2016_Oct_17_1508,59.7289465027,Gestalt_exp1,1,7576,,07
352,images/i13.bmp,scrambled,,,0.0,29.0,29.0,42.0,,,,,,,2.0,1.402,,,,,,,2016_Oct_17_1508,59.7289465027,Gestalt_exp1,1,7576,,13
353,images/INVk04.bmp,inverted,,,0.0,30.0,30.0,62.0,,,,,,,2.0,1.319,,,,,,,2016_Oct_17_1508,59.7289465027,Gestalt_exp1,1,7576,,04
354,images/i08.bmp,scrambled,,,0.0,31.0,31.0,37.0,,,,,,,2.0,1.368,,,,,,,2016_Oct_17_1508,59.7289465027,Gestalt_exp1,1,7576,,08
355,images/i05.bmp,scrambled,,,0.0,32.0,32.0,34.0,,,,,,,2.0,0.852,,,,,,,2016_Oct_17_1508,59.7289465027,Gestalt_exp1,1,7576,,05
356,images/INVk24.bmp,inverted,,,0.0,33.0,33.0,76.0,,,,,,,2.0,1.102,,,,,,,2016_Oct_17_1508,59.7289465027,Gestalt_exp1,1,7576,,24
357,images/i01.bmp,scrambled,,,0.0,34.0,34.0,30.0,,,,,,,2.0,1.318,,,,,,,2016_Oct_17_1508,59.7289465027,Gestalt_exp1,1,7576,,01
358,images/k24.bmp,gestalt,,,0.0,35.0,35.0,23.0,,,,,,,2.0,1.002,,,,,,,2016_Oct_17_1508,59.7289465027,Gestalt_exp1,1,7576,,24
359,images/i20.bmp,scrambled,,,0.0,36.0,36.0,49.0,,,,,,,2.0,2.402,,,,,,,2016_Oct_17_1508,59.7289465027,Gestalt_exp1,1,7576,,20
360,images/k28.bmp,gestalt,,,0.0,37.0,37.0,27.0,,,,,,,3.0,1.735,,,,,,,2016_Oct_17_1508,59.7289465027,Gestalt_exp1,1,7576,,28
361,images/k02.bmp,gestalt,,,0.0,38.0,38.0,1.0,,,,,,,2.0,0.952,,,,,,,2016_Oct_17_1508,59.7289465027,Gestalt_exp1,1,7576,,02
362,images/INVk28.bmp,inverted,,,0.0,39.0,39.0,80.0,,,,,,,3.0,2.436,,,,,,,2016_Oct_17_1508,59.7289465027,Gestalt_exp1,1,7576,,28
363,images/i15.bmp,scrambled,,,0.0,40.0,40.0,44.0,,,,,,,2.0,1.753,,,,,,,2016_Oct_17_1508,59.7289465027,Gestalt_exp1,1,7576,,15
364,images/i06.bmp,scrambled,,,0.0,41.0,41.0,35.0,,,,,,,2.0,1.418,,,,,,,2016_Oct_17_1508,59.7289465027,Gestalt_exp1,1,7576,,06
365,images/k27.bmp,gestalt,,,0.0,42.0,42.0,26.0,,,,,,,2.0,0.885,,,,,,,2016_Oct_17_1508,59.7289465027,Gestalt_exp1,1,7576,,27
366,images/k23.bmp,gestalt,,,0.0,43.0,43.0,22.0,,,,,,,2.0,0.919,,,,,,,2016_Oct_17_1508,59.7289465027,Gestalt_exp1,1,7576,,23
367,images/k05.bmp,gestalt,,,0.0,44.0,44.0,4.0,,,,,,,3.0,1.569,,,,,,,2016_Oct_17_1508,59.7289465027,Gestalt_exp1,1,7576,,05
368,images/INVk05.bmp,inverted,,,0.0,45.0,45.0,63.0,,,,,,,2.0,0.786,,,,,,,2016_Oct_17_1508,59.7289465027,Gestalt_exp1,1,7576,,05
369,images/i04.bmp,scrambled,,,0.0,46.0,46.0,33.0,,,,,,,2.0,1.219,,,,,,,2016_Oct_17_1508,59.7289465027,Gestalt_exp1,1,7576,,04
370,images/INVk21.bmp,inverted,,,0.0,47.0,47.0,73.0,,,,,,,2.0,1.135,,,,,,,2016_Oct_17_1508,59.7289465027,Gestalt_exp1,1,7576,,21
371,images/k13.bmp,gestalt,,,0.0,48.0,48.0,12.0,,,,,,,3.0,1.602,,,,,,,2016_Oct_17_1508,59.7289465027,Gestalt_exp1,1,7576,,13
372,images/INVk23.bmp,inverted,,,0.0,49.0,49.0,75.0,,,,,,,2.0,0.885,,,,,,,2016_Oct_17_1508,59.7289465027,Gestalt_exp1,1,7576,,23
373,images/INVk29.bmp,inverted,,,0.0,50.0,50.0,81.0,,,,,,,2.0,0.835,,,,,,,2016_Oct_17_1508,59.7289465027,Gestalt_exp1,1,7576,,29
374,images/i12.bmp,scrambled,,,0.0,51.0,51.0,41.0,,,,,,,2.0,1.368,,,,,,,2016_Oct_17_1508,59.7289465027,Gestalt_exp1,1,7576,,12
375,images/i30.bmp,scrambled,,,0.0,52.0,52.0,59.0,,,,,,,2.0,2.168,,,,,,,2016_Oct_17_1508,59.7289465027,Gestalt_exp1,1,7576,,30
376,images/INVk14.bmp,inverted,,,0.0,53.0,53.0,68.0,,,,,,,2.0,1.402,,,,,,,2016_Oct_17_1508,59.7289465027,Gestalt_exp1,1,7576,,14
377,images/i24.bmp,scrambled,,,0.0,54.0,54.0,53.0,,,,,,,2.0,1.135,,,,,,,2016_Oct_17_1508,59.7289465027,Gestalt_exp1,1,7576,,24
378,images/k25.bmp,gestalt,,,0.0,55.0,55.0,24.0,,,,,,,2.0,0.985,,,,,,,2016_Oct_17_1508,59.7289465027,Gestalt_exp1,1,7576,,25
379,images/INVk03.bmp,inverted,,,0.0,56.0,56.0,61.0,,,,,,,2.0,1.185,,,,,,,2016_Oct_17_1508,59.7289465027,Gestalt_exp1,1,7576,,03
380,images/i09.bmp,scrambled,,,0.0,57.0,57.0,38.0,,,,,,,2.0,1.134,,,,,,,2016_Oct_17_1508,59.7289465027,Gestalt_exp1,1,7576,,09
381,images/k19.bmp,gestalt,,,0.0,58.0,58.0,18.0,,,,,,,2.0,0.968,,,,,,,2016_Oct_17_1508,59.7289465027,Gestalt_exp1,1,7576,,19
382,images/i25.bmp,scrambled,,,0.0,59.0,59.0,54.0,,,,,,,2.0,1.269,,,,,,,2016_Oct_17_1508,59.7289465027,Gestalt_exp1,1,7576,,25
383,images/k16.bmp,gestalt,,,0.0,60.0,60.0,15.0,,,,,,,2.0,1.336,,,,,,,2016_Oct_17_1508,59.7289465027,Gestalt_exp1,1,7576,,16
384,images/k17.bmp,gestalt,,,0.0,61.0,61.0,16.0,,,,,,,2.0,1.152,,,,,,,2016_Oct_17_1508,59.7289465027,Gestalt_exp1,1,7576,,17
385,images/i11.bmp,scrambled,,,0.0,62.0,62.0,40.0,,,,,,,2.0,1.019,,,,,,,2016_Oct_17_1508,59.7289465027,Gestalt_exp1,1,7576,,11
386,images/INVk15.bmp,inverted,,,0.0,63.0,63.0,69.0,,,,,,,2.0,1.285,,,,,,,2016_Oct_17_1508,59.7289465027,Gestalt_exp1,1,7576,,15
387,images/i14.bmp,scrambled,,,0.0,64.0,64.0,43.0,,,,,,,3.0,1.352,,,,,,,2016_Oct_17_1508,59.7289465027,Gestalt_exp1,1,7576,,14
388,images/k14.bmp,gestalt,,,0.0,65.0,65.0,13.0,,,,,,,3.0,1.185,,,,,,,2016_Oct_17_1508,59.7289465027,Gestalt_exp1,1,7576,,14
389,images/INVk26.bmp,inverted,,,0.0,66.0,66.0,78.0,,,,,,,2.0,1.052,,,,,,,2016_Oct_17_1508,59.7289465027,Gestalt_exp1,1,7576,,26
390,images/k06.bmp,gestalt,,,0.0,67.0,67.0,5.0,,,,,,,2.0,1.019,,,,,,,2016_Oct_17_1508,59.7289465027,Gestalt_exp1,1,7576,,06
391,images/INVk12.bmp,inverted,,,0.0,68.0,68.0,67.0,,,,,,,2.0,1.486,,,,,,,2016_Oct_17_1508,59.7289465027,Gestalt_exp1,1,7576,,12
392,images/k29.bmp,gestalt,,,0.0,69.0,69.0,28.0,,,,,,,2.0,1.135,,,,,,,2016_Oct_17_1508,59.7289465027,Gestalt_exp1,1,7576,,29
393,images/i02.bmp,scrambled,,,0.0,70.0,70.0,31.0,,,,,,,2.0,0.885,,,,,,,2016_Oct_17_1508,59.7289465027,Gestalt_exp1,1,7576,,02
394,images/k26.bmp,gestalt,,,0.0,71.0,71.0,25.0,,,,,,,3.0,1.986,,,,,,,2016_Oct_17_1508,59.7289465027,Gestalt_exp1,1,7576,,26
395,images/INVk16.bmp,inverted,,,0.0,72.0,72.0,70.0,,,,,,,2.0,1.252,,,,,,,2016_Oct_17_1508,59.7289465027,Gestalt_exp1,1,7576,,16
396,images/i16.bmp,scrambled,,,0.0,73.0,73.0,45.0,,,,,,,2.0,1.07,,,,,,,2016_Oct_17_1508,59.7289465027,Gestalt_exp1,1,7576,,16
397,images/k08.bmp,gestalt,,,0.0,74.0,74.0,7.0,,,,,,,2.0,1.186,,,,,,,2016_Oct_17_1508,59.7289465027,Gestalt_exp1,1,7576,,08
398,images/k12.bmp,gestalt,,,0.0,75.0,75.0,11.0,,,,,,,2.0,1.07,,,,,,,2016_Oct_17_1508,59.7289465027,Gestalt_exp1,1,7576,,12
399,images/k22.bmp,gestalt,,,0.0,76.0,76.0,21.0,,,,,,,2.0,1.169,,,,,,,2016_Oct_17_1508,59.7289465027,Gestalt_exp1,1,7576,,22
400,images/i23.bmp,scrambled,,,0.0,77.0,77.0,52.0,,,,,,,2.0,1.119,,,,,,,2016_Oct_17_1508,59.7289465027,Gestalt_exp1,1,7576,,23
401,images/k20.bmp,gestalt,,,0.0,78.0,78.0,19.0,,,,,,,2.0,1.152,,,,,,,2016_Oct_17_1508,59.7289465027,Gestalt_exp1,1,7576,,20
402,images/INVk10.bmp,inverted,,,0.0,79.0,79.0,66.0,,,,,,,2.0,2.036,,,,,,,2016_Oct_17_1508,59.7289465027,Gestalt_exp1,1,7576,,10
403,images/i26.bmp,scrambled,,,0.0,80.0,80.0,55.0,,,,,,,2.0,1.119,,,,,,,2016_Oct_17_1508,59.7289465027,Gestalt_exp1,1,7576,,26
404,images/i10.bmp,scrambled,,,0.0,81.0,81.0,39.0,,,,,,,2.0,1.285,,,,,,,2016_Oct_17_1508,59.7289465027,Gestalt_exp1,1,7576,,10
405,images/i17.bmp,scrambled,,,0.0,82.0,82.0,46.0,,,,,,,2.0,1.602,,,,,,,2016_Oct_17_1508,59.7289465027,Gestalt_exp1,1,7576,,17
484,images/k28.bmp,gestalt,,,0.0,0.0,0.0,27.0,,,,,,,5.0,6.868,,,,,,,2016_May_03_1203,60.0146520147,Gestalt_exp1,1,9010,,28
485,images/k04.bmp,gestalt,,,0.0,1.0,1.0,3.0,,,,,,,5.0,5.485,,,,,,,2016_May_03_1203,60.0146520147,Gestalt_exp1,1,9010,,04
486,images/k02.bmp,gestalt,,,0.0,2.0,2.0,1.0,,,,,,,5.0,3.519,,,,,,,2016_May_03_1203,60.0146520147,Gestalt_exp1,1,9010,,02
487,images/i09.bmp,scrambled,,,0.0,3.0,3.0,38.0,,,,,,,5.0,5.119,,,,,,,2016_May_03_1203,60.0146520147,Gestalt_exp1,1,9010,,09
488,images/i18.bmp,scrambled,,,0.0,4.0,4.0,47.0,,,,,,,5.0,3.702,,,,,,,2016_May_03_1203,60.0146520147,Gestalt_exp1,1,9010,,18
489,images/INVk30.bmp,inverted,,,0.0,5.0,5.0,82.0,,,,,,,5.0,4.302,,,,,,,2016_May_03_1203,60.0146520147,Gestalt_exp1,1,9010,,30
490,images/INVk23.bmp,inverted,,,0.0,6.0,6.0,75.0,,,,,,,5.0,2.419,,,,,,,2016_May_03_1203,60.0146520147,Gestalt_exp1,1,9010,,23
491,images/k19.bmp,gestalt,,,0.0,7.0,7.0,18.0,,,,,,,5.0,6.569,,,,,,,2016_May_03_1203,60.0146520147,Gestalt_exp1,1,9010,,19
492,images/i29.bmp,scrambled,,,0.0,8.0,8.0,58.0,,,,,,,5.0,3.134,,,,,,,2016_May_03_1203,60.0146520147,Gestalt_exp1,1,9010,,29
493,images/i30.bmp,scrambled,,,0.0,9.0,9.0,59.0,,,,,,,5.0,3.552,,,,,,,2016_May_03_1203,60.0146520147,Gestalt_exp1,1,9010,,30
494,images/i14.bmp,scrambled,,,0.0,10.0,10.0,43.0,,,,,,,5.0,3.419,,,,,,,2016_May_03_1203,60.0146520147,Gestalt_exp1,1,9010,,14
495,images/INVk27.bmp,inverted,,,0.0,11.0,11.0,79.0,,,,,,,5.0,2.735,,,,,,,2016_May_03_1203,60.0146520147,Gestalt_exp1,1,9010,,27
496,images/k08.bmp,gestalt,,,0.0,12.0,12.0,7.0,,,,,,,3.0,4.519,,,,,,,2016_May_03_1203,60.0146520147,Gestalt_exp1,1,9010,,08
497,images/i22.bmp,scrambled,,,0.0,13.0,13.0,51.0,,,,,,,5.0,2.152,,,,,,,2016_May_03_1203,60.0146520147,Gestalt_exp1,1,9010,,22
498,images/k25.bmp,gestalt,,,0.0,14.0,14.0,24.0,,,,,,,5.0,2.185,,,,,,,2016_May_03_1203,60.0146520147,Gestalt_exp1,1,9010,,25
499,images/i16.bmp,scrambled,,,0.0,15.0,15.0,45.0,,,,,,,5.0,2.586,,,,,,,2016_May_03_1203,60.0146520147,Gestalt_exp1,1,9010,,16
500,images/k11.bmp,gestalt,,,0.0,16.0,16.0,10.0,,,,,,,5.0,3.119,,,,,,,2016_May_03_1203,60.0146520147,Gestalt_exp1,1,9010,,11
501,images/i23.bmp,scrambled,,,0.0,17.0,17.0,52.0,,,,,,,5.0,2.019,,,,,,,2016_May_03_1203,60.0146520147,Gestalt_exp1,1,9010,,23
502,images/k17.bmp,gestalt,,,0.0,18.0,18.0,16.0,,,,,,,5.0,3.885,,,,,,,2016_May_03_1203,60.0146520147,Gestalt_exp1,1,9010,,17
503,images/i06.bmp,scrambled,,,0.0,19.0,19.0,35.0,,,,,,,5.0,2.802,,,,,,,2016_May_03_1203,60.0146520147,Gestalt_exp1,1,9010,,06
504,images/i27.bmp,scrambled,,,0.0,20.0,20.0,56.0,,,,,,,5.0,8.919,,,,,,,2016_May_03_1203,60.0146520147,Gestalt_exp1,1,9010,,27
505,images/INVk28.bmp,inverted,,,0.0,21.0,21.0,80.0,,,,,,,3.0,3.102,,,,,,,2016_May_03_1203,60.0146520147,Gestalt_exp1,1,9010,,28
506,images/INVk03.bmp,inverted,,,0.0,22.0,22.0,61.0,,,,,,,3.0,2.152,,,,,,,2016_May_03_1203,60.0146520147,Gestalt_exp1,1,9010,,03
507,images/i04.bmp,scrambled,,,0.0,23.0,23.0,33.0,,,,,,,3.0,2.202,,,,,,,2016_May_03_1203,60.0146520147,Gestalt_exp1,1,9010,,04
508,images/k10.bmp,gestalt,,,0.0,24.0,24.0,9.0,,,,,,,4.0,2.168,,,,,,,2016_May_03_1203,60.0146520147,Gestalt_exp1,1,9010,,10
509,images/INVk10.bmp,inverted,,,0.0,25.0,25.0,66.0,,,,,,,4.0,2.834,,,,,,,2016_May_03_1203,60.0146520147,Gestalt_exp1,1,9010,,10
510,images/INVk06.bmp,inverted,,,0.0,26.0,26.0,64.0,,,,,,,5.0,2.919,,,,,,,2016_May_03_1203,60.0146520147,Gestalt_exp1,1,9010,,06
511,images/k24.bmp,gestalt,,,0.0,27.0,27.0,23.0,,,,,,,5.0,1.918,,,,,,,2016_May_03_1203,60.0146520147,Gestalt_exp1,1,9010,,24
512,images/k06.bmp,gestalt,,,0.0,28.0,28.0,5.0,,,,,,,5.0,1.585,,,,,,,2016_May_03_1203,60.0146520147,Gestalt_exp1,1,9010,,06
513,images/k23.bmp,gestalt,,,0.0,29.0,29.0,22.0,,,,,,,5.0,1.636,,,,,,,2016_May_03_1203,60.0146520147,Gestalt_exp1,1,9010,,23
514,images/k15.bmp,gestalt,,,0.0,30.0,30.0,14.0,,,,,,,5.0,1.919,,,,,,,2016_May_03_1203,60.0146520147,Gestalt_exp1,1,9010,,15
515,images/INVk15.bmp,inverted,,,0.0,31.0,31.0,69.0,,,,,,,5.0,2.168,,,,,,,2016_May_03_1203,60.0146520147,Gestalt_exp1,1,9010,,15
516,images/i13.bmp,scrambled,,,0.0,32.0,32.0,42.0,,,,,,,5.0,2.468,,,,,,,2016_May_03_1203,60.0146520147,Gestalt_exp1,1,9010,,13
517,images/k12.bmp,gestalt,,,0.0,33.0,33.0,11.0,,,,,,,4.0,2.502,,,,,,,2016_May_03_1203,60.0146520147,Gestalt_exp1,1,9010,,12
518,images/INVk05.bmp,inverted,,,0.0,34.0,34.0,63.0,,,,,,,5.0,1.969,,,,,,,2016_May_03_1203,60.0146520147,Gestalt_exp1,1,9010,,05
519,images/i28.bmp,scrambled,,,0.0,35.0,35.0,57.0,,,,,,,5.0,1.319,,,,,,,2016_May_03_1203,60.0146520147,Gestalt_exp1,1,9010,,28
520,images/i01.bmp,scrambled,,,0.0,36.0,36.0,30.0,,,,,,,5.0,1.585,,,,,,,2016_May_03_1203,60.0146520147,Gestalt_exp1,1,9010,,01
521,images/k18.bmp,gestalt,,,0.0,37.0,37.0,17.0,,,,,,,5.0,1.92,,,,,,,2016_May_03_1203,60.0146520147,Gestalt_exp1,1,9010,,18
522,images/i24.bmp,scrambled,,,0.0,38.0,38.0,53.0,,,,,,,5.0,1.67,,,,,,,2016_May_03_1203,60.0146520147,Gestalt_exp1,1,9010,,24
523,images/k16.bmp,gestalt,,,0.0,39.0,39.0,15.0,,,,,,,5.0,2.052,,,,,,,2016_May_03_1203,60.0146520147,Gestalt_exp1,1,9010,,16
524,images/INVk26.bmp,inverted,,,0.0,40.0,40.0,78.0,,,,,,,3.0,2.252,,,,,,,2016_May_03_1203,60.0146520147,Gestalt_exp1,1,9010,,26
525,images/INVk22.bmp,inverted,,,0.0,41.0,41.0,74.0,,,,,,,5.0,2.003,,,,,,,2016_May_03_1203,60.0146520147,Gestalt_exp1,1,9010,,22
526,images/k14.bmp,gestalt,,,0.0,42.0,42.0,13.0,,,,,,,6.0,2.185,,,,,,,2016_May_03_1203,60.0146520147,Gestalt_exp1,1,9010,,14
527,images/k07.bmp,gestalt,,,0.0,43.0,43.0,6.0,,,,,,,6.0,1.936,,,,,,,2016_May_03_1203,60.0146520147,Gestalt_exp1,1,9010,,07
528,images/INVk21.bmp,inverted,,,0.0,44.0,44.0,73.0,,,,,,,6.0,2.219,,,,,,,2016_May_03_1203,60.0146520147,Gestalt_exp1,1,9010,,21
529,images/k26.bmp,gestalt,,,0.0,45.0,45.0,25.0,,,,,,,6.0,3.085,,,,,,,2016_May_03_1203,60.0146520147,Gestalt_exp1,1,9010,,26
530,images/INVk14.bmp,inverted,,,0.0,46.0,46.0,68.0,,,,,,,7.0,2.451,,,,,,,2016_May_03_1203,60.0146520147,Gestalt_exp1,1,9010,,14
531,images/i25.bmp,scrambled,,,0.0,47.0,47.0,54.0,,,,,,,6.0,1.785,,,,,,,2016_May_03_1203,60.0146520147,Gestalt_exp1,1,9010,,25
532,images/INVk18.bmp,inverted,,,0.0,48.0,48.0,71.0,,,,,,,6.0,2.052,,,,,,,2016_May_03_1203,60.0146520147,Gestalt_exp1,1,9010,,18
533,images/INVk12.bmp,inverted,,,0.0,49.0,49.0,67.0,,,,,,,5.0,2.202,,,,,,,2016_May_03_1203,60.0146520147,Gestalt_exp1,1,9010,,12
534,images/i08.bmp,scrambled,,,0.0,50.0,50.0,37.0,,,,,,,5.0,2.402,,,,,,,2016_May_03_1203,60.0146520147,Gestalt_exp1,1,9010,,08
535,images/INVk19.bmp,inverted,,,0.0,51.0,51.0,72.0,,,,,,,5.0,1.785,,,,,,,2016_May_03_1203,60.0146520147,Gestalt_exp1,1,9010,,19
536,images/i17.bmp,scrambled,,,0.0,52.0,52.0,46.0,,,,,,,5.0,1.319,,,,,,,2016_May_03_1203,60.0146520147,Gestalt_exp1,1,9010,,17
537,images/INVk25.bmp,inverted,,,0.0,53.0,53.0,77.0,,,,,,,5.0,2.368,,,,,,,2016_May_03_1203,60.0146520147,Gestalt_exp1,1,9010,,25
538,images/k30.bmp,gestalt,,,0.0,54.0,54.0,29.0,,,,,,,6.0,3.402,,,,,,,2016_May_03_1203,60.0146520147,Gestalt_exp1,1,9010,,30
539,images/INVk24.bmp,inverted,,,0.0,55.0,55.0,76.0,,,,,,,5.0,1.985,,,,,,,2016_May_03_1203,60.0146520147,Gestalt_exp1,1,9010,,24
540,images/k03.bmp,gestalt,,,0.0,56.0,56.0,2.0,,,,,,,4.0,2.869,,,,,,,2016_May_03_1203,60.0146520147,Gestalt_exp1,1,9010,,03
541,images/INVk09.bmp,inverted,,,0.0,57.0,57.0,65.0,,,,,,,6.0,2.735,,,,,,,2016_May_03_1203,60.0146520147,Gestalt_exp1,1,9010,,09
542,images/k29.bmp,gestalt,,,0.0,58.0,58.0,28.0,,,,,,,5.0,3.569,,,,,,,2016_May_03_1203,60.0146520147,Gestalt_exp1,1,9010,,29
543,images/i26.bmp,scrambled,,,0.0,59.0,59.0,55.0,,,,,,,5.0,1.719,,,,,,,2016_May_03_1203,60.0146520147,Gestalt_exp1,1,9010,,26
544,images/k05.bmp,gestalt,,,0.0,60.0,60.0,4.0,,,,,,,5.0,1.952,,,,,,,2016_May_03_1203,60.0146520147,Gestalt_exp1,1,9010,,05
545,images/k22.bmp,gestalt,,,0.0,61.0,61.0,21.0,,,,,,,5.0,1.302,,,,,,,2016_May_03_1203,60.0146520147,Gestalt_exp1,1,9010,,22
546,images/k27.bmp,gestalt,,,0.0,62.0,62.0,26.0,,,,,,,5.0,1.435,,,,,,,2016_May_03_1203,60.0146520147,Gestalt_exp1,1,9010,,27
547,images/INVk04.bmp,inverted,,,0.0,63.0,63.0,62.0,,,,,,,5.0,1.885,,,,,,,2016_May_03_1203,60.0146520147,Gestalt_exp1,1,9010,,04
548,images/k09.bmp,gestalt,,,0.0,64.0,64.0,8.0,,,,,,,5.0,1.819,,,,,,,2016_May_03_1203,60.0146520147,Gestalt_exp1,1,9010,,09
549,images/i19.bmp,scrambled,,,0.0,65.0,65.0,48.0,,,,,,,5.0,3.519,,,,,,,2016_May_03_1203,60.0146520147,Gestalt_exp1,1,9010,,19
550,images/k01.bmp,gestalt,,,0.0,66.0,66.0,0.0,,,,,,,5.0,3.402,,,,,,,2016_May_03_1203,60.0146520147,Gestalt_exp1,1,9010,,01
551,images/i02.bmp,scrambled,,,0.0,67.0,67.0,31.0,,,,,,,5.0,1.552,,,,,,,2016_May_03_1203,60.0146520147,Gestalt_exp1,1,9010,,02
552,images/i20.bmp,scrambled,,,0.0,68.0,68.0,49.0,,,,,,,5.0,1.885,,,,,,,2016_May_03_1203,60.0146520147,Gestalt_exp1,1,9010,,20
553,images/k13.bmp,gestalt,,,0.0,69.0,69.0,12.0,,,,,,,6.0,2.335,,,,,,,2016_May_03_1203,60.0146520147,Gestalt_exp1,1,9010,,13
554,images/k21.bmp,gestalt,,,0.0,70.0,70.0,20.0,,,,,,,5.0,2.102,,,,,,,2016_May_03_1203,60.0146520147,Gestalt_exp1,1,9010,,21
555,images/i21.bmp,scrambled,,,0.0,71.0,71.0,50.0,,,,,,,5.0,1.186,,,,,,,2016_May_03_1203,60.0146520147,Gestalt_exp1,1,9010,,21
556,images/i10.bmp,scrambled,,,0.0,72.0,72.0,39.0,,,,,,,5.0,1.902,,,,,,,2016_May_03_1203,60.0146520147,Gestalt_exp1,1,9010,,10
557,images/i11.bmp,scrambled,,,0.0,73.0,73.0,40.0,,,,,,,5.0,1.269,,,,,,,2016_May_03_1203,60.0146520147,Gestalt_exp1,1,9010,,11
558,images/i05.bmp,scrambled,,,0.0,74.0,74.0,34.0,,,,,,,5.0,1.302,,,,,,,2016_May_03_1203,60.0146520147,Gestalt_exp1,1,9010,,05
559,images/INVk16.bmp,inverted,,,0.0,75.0,75.0,70.0,,,,,,,5.0,1.402,,,,,,,2016_May_03_1203,60.0146520147,Gestalt_exp1,1,9010,,16
560,images/INVk29.bmp,inverted,,,0.0,76.0,76.0,81.0,,,,,,,5.0,1.552,,,,,,,2016_May_03_1203,60.0146520147,Gestalt_exp1,1,9010,,29
561,images/INVk01.bmp,inverted,,,0.0,77.0,77.0,60.0,,,,,,,5.0,1.403,,,,,,,2016_May_03_1203,60.0146520147,Gestalt_exp1,1,9010,,01
562,images/k20.bmp,gestalt,,,0.0,78.0,78.0,19.0,,,,,,,5.0,1.402,,,,,,,2016_May_03_1203,60.0146520147,Gestalt_exp1,1,9010,,20
563,images/i15.bmp,scrambled,,,0.0,79.0,79.0,44.0,,,,,,,5.0,3.619,,,,,,,2016_May_03_1203,60.0146520147,Gestalt_exp1,1,9010,,15
564,images/i03.bmp,scrambled,,,0.0,80.0,80.0,32.0,,,,,,,5.0,1.535,,,,,,,2016_May_03_1203,60.0146520147,Gestalt_exp1,1,9010,,03
565,images/i12.bmp,scrambled,,,0.0,81.0,81.0,41.0,,,,,,,5.0,1.285,,,,,,,2016_May_03_1203,60.0146520147,Gestalt_exp1,1,9010,,12
566,images/i07.bmp,scrambled,,,0.0,82.0,82.0,36.0,,,,,,,5.0,1.252,,,,,,,2016_May_03_1203,60.0146520147,Gestalt_exp1,1,9010,,07
645,images/INVk16.bmp,inverted,,,0.0,0.0,0.0,70.0,,,,,,,5.0,6.638,,,,,,,2016_Sep_19_1511,59.8884276929,Gestalt_exp1,1,11485,,16
646,images/INVk19.bmp,inverted,,,0.0,1.0,1.0,72.0,,,,,,,5.0,2.537,,,,,,,2016_Sep_19_1511,59.8884276929,Gestalt_exp1,1,11485,,19
647,images/INVk26.bmp,inverted,,,0.0,2.0,2.0,78.0,,,,,,,5.0,2.203,,,,,,,2016_Sep_19_1511,59.8884276929,Gestalt_exp1,1,11485,,26
648,images/k12.bmp,gestalt,,,0.0,3.0,3.0,11.0,,,,,,,5.0,2.136,,,,,,,2016_Sep_19_1511,59.8884276929,Gestalt_exp1,1,11485,,12
649,images/INVk28.bmp,inverted,,,0.0,4.0,4.0,80.0,,,,,,,5.0,1.686,,,,,,,2016_Sep_19_1511,59.8884276929,Gestalt_exp1,1,11485,,28
650,images/INVk18.bmp,inverted,,,0.0,5.0,5.0,71.0,,,,,,,5.0,2.07,,,,,,,2016_Sep_19_1511,59.8884276929,Gestalt_exp1,1,11485,,18
651,images/i15.bmp,scrambled,,,0.0,6.0,6.0,44.0,,,,,,,5.0,1.903,,,,,,,2016_Sep_19_1511,59.8884276929,Gestalt_exp1,1,11485,,15
652,images/INVk25.bmp,inverted,,,0.0,7.0,7.0,77.0,,,,,,,6.0,1.719,,,,,,,2016_Sep_19_1511,59.8884276929,Gestalt_exp1,1,11485,,25
653,images/k23.bmp,gestalt,,,0.0,8.0,8.0,22.0,,,,,,,5.0,1.92,,,,,,,2016_Sep_19_1511,59.8884276929,Gestalt_exp1,1,11485,,23
654,images/k09.bmp,gestalt,,,0.0,9.0,9.0,8.0,,,,,,,5.0,1.486,,,,,,,2016_Sep_19_1511,59.8884276929,Gestalt_exp1,1,11485,,09
655,images/k15.bmp,gestalt,,,0.0,10.0,10.0,14.0,,,,,,,6.0,2.787,,,,,,,2016_Sep_19_1511,59.8884276929,Gestalt_exp1,1,11485,,15
656,images/k07.bmp,gestalt,,,0.0,11.0,11.0,6.0,,,,,,,6.0,2.086,,,,,,,2016_Sep_19_1511,59.8884276929,Gestalt_exp1,1,11485,,07
657,images/INVk09.bmp,inverted,,,0.0,12.0,12.0,65.0,,,,,,,5.0,1.987,,,,,,,2016_Sep_19_1511,59.8884276929,Gestalt_exp1,1,11485,,09
658,images/INVk10.bmp,inverted,,,0.0,13.0,13.0,66.0,,,,,,,5.0,1.553,,,,,,,2016_Sep_19_1511,59.8884276929,Gestalt_exp1,1,11485,,10
659,images/i18.bmp,scrambled,,,0.0,14.0,14.0,47.0,,,,,,,6.0,2.22,,,,,,,2016_Sep_19_1511,59.8884276929,Gestalt_exp1,1,11485,,18
660,images/i14.bmp,scrambled,,,0.0,15.0,15.0,43.0,,,,,,,5.0,2.753,,,,,,,2016_Sep_19_1511,59.8884276929,Gestalt_exp1,1,11485,,14
661,images/INVk03.bmp,inverted,,,0.0,16.0,16.0,61.0,,,,,,,4.0,2.254,,,,,,,2016_Sep_19_1511,59.8884276929,Gestalt_exp1,1,11485,,03
662,images/INVk22.bmp,inverted,,,0.0,17.0,17.0,74.0,,,,,,,5.0,1.703,,,,,,,2016_Sep_19_1511,59.8884276929,Gestalt_exp1,1,11485,,22
663,images/i23.bmp,scrambled,,,0.0,18.0,18.0,52.0,,,,,,,6.0,1.803,,,,,,,2016_Sep_19_1511,59.8884276929,Gestalt_exp1,1,11485,,23
664,images/i20.bmp,scrambled,,,0.0,19.0,19.0,49.0,,,,,,,4.0,2.587,,,,,,,2016_Sep_19_1511,59.8884276929,Gestalt_exp1,1,11485,,20
665,images/k13.bmp,gestalt,,,0.0,20.0,20.0,12.0,,,,,,,7.0,2.103,,,,,,,2016_Sep_19_1511,59.8884276929,Gestalt_exp1,1,11485,,13
666,images/k10.bmp,gestalt,,,0.0,21.0,21.0,9.0,,,,,,,4.0,1.753,,,,,,,2016_Sep_19_1511,59.8884276929,Gestalt_exp1,1,11485,,10
667,images/i10.bmp,scrambled,,,0.0,22.0,22.0,39.0,,,,,,,4.0,1.519,,,,,,,2016_Sep_19_1511,59.8884276929,Gestalt_exp1,1,11485,,10
668,images/i12.bmp,scrambled,,,0.0,23.0,23.0,41.0,,,,,,,5.0,1.319,,,,,,,2016_Sep_19_1511,59.8884276929,Gestalt_exp1,1,11485,,12
669,images/k21.bmp,gestalt,,,0.0,24.0,24.0,20.0,,,,,,,5.0,1.637,,,,,,,2016_Sep_19_1511,59.8884276929,Gestalt_exp1,1,11485,,21
670,images/i29.bmp,scrambled,,,0.0,25.0,25.0,58.0,,,,,,,5.0,1.92,,,,,,,2016_Sep_19_1511,59.8884276929,Gestalt_exp1,1,11485,,29
671,images/i09.bmp,scrambled,,,0.0,26.0,26.0,38.0,,,,,,,6.0,1.969,,,,,,,2016_Sep_19_1511,59.8884276929,Gestalt_exp1,1,11485,,09
672,images/k16.bmp,gestalt,,,0.0,27.0,27.0,15.0,,,,,,,4.0,2.203,,,,,,,2016_Sep_19_1511,59.8884276929,Gestalt_exp1,1,11485,,16
673,images/INVk15.bmp,inverted,,,0.0,28.0,28.0,69.0,,,,,,,4.0,1.703,,,,,,,2016_Sep_19_1511,59.8884276929,Gestalt_exp1,1,11485,,15
674,images/INVk04.bmp,inverted,,,0.0,29.0,29.0,62.0,,,,,,,6.0,3.02,,,,,,,2016_Sep_19_1511,59.8884276929,Gestalt_exp1,1,11485,,04
675,images/k11.bmp,gestalt,,,0.0,30.0,30.0,10.0,,,,,,,5.0,1.637,,,,,,,2016_Sep_19_1511,59.8884276929,Gestalt_exp1,1,11485,,11
676,images/INVk24.bmp,inverted,,,0.0,31.0,31.0,76.0,,,,,,,4.0,1.77,,,,,,,2016_Sep_19_1511,59.8884276929,Gestalt_exp1,1,11485,,24
677,images/k27.bmp,gestalt,,,0.0,32.0,32.0,26.0,,,,,,,4.0,2.253,,,,,,,2016_Sep_19_1511,59.8884276929,Gestalt_exp1,1,11485,,27
678,images/INVk14.bmp,inverted,,,0.0,33.0,33.0,68.0,,,,,,,6.0,1.719,,,,,,,2016_Sep_19_1511,59.8884276929,Gestalt_exp1,1,11485,,14
679,images/k04.bmp,gestalt,,,0.0,34.0,34.0,3.0,,,,,,,6.0,1.903,,,,,,,2016_Sep_19_1511,59.8884276929,Gestalt_exp1,1,11485,,04
680,images/i26.bmp,scrambled,,,0.0,35.0,35.0,55.0,,,,,,,5.0,1.569,,,,,,,2016_Sep_19_1511,59.8884276929,Gestalt_exp1,1,11485,,26
681,images/k30.bmp,gestalt,,,0.0,36.0,36.0,29.0,,,,,,,6.0,1.753,,,,,,,2016_Sep_19_1511,59.8884276929,Gestalt_exp1,1,11485,,30
682,images/k22.bmp,gestalt,,,0.0,37.0,37.0,21.0,,,,,,,4.0,1.554,,,,,,,2016_Sep_19_1511,59.8884276929,Gestalt_exp1,1,11485,,22
683,images/i17.bmp,scrambled,,,0.0,38.0,38.0,46.0,,,,,,,4.0,2.57,,,,,,,2016_Sep_19_1511,59.8884276929,Gestalt_exp1,1,11485,,17
684,images/i22.bmp,scrambled,,,0.0,39.0,39.0,51.0,,,,,,,5.0,1.703,,,,,,,2016_Sep_19_1511,59.8884276929,Gestalt_exp1,1,11485,,22
685,images/k14.bmp,gestalt,,,0.0,40.0,40.0,13.0,,,,,,,6.0,1.769,,,,,,,2016_Sep_19_1511,59.8884276929,Gestalt_exp1,1,11485,,14
686,images/k06.bmp,gestalt,,,0.0,41.0,41.0,5.0,,,,,,,6.0,1.92,,,,,,,2016_Sep_19_1511,59.8884276929,Gestalt_exp1,1,11485,,06
687,images/i24.bmp,scrambled,,,0.0,42.0,42.0,53.0,,,,,,,4.0,2.052,,,,,,,2016_Sep_19_1511,59.8884276929,Gestalt_exp1,1,11485,,24
688,images/k19.bmp,gestalt,,,0.0,43.0,43.0,18.0,,,,,,,5.0,1.986,,,,,,,2016_Sep_19_1511,59.8884276929,Gestalt_exp1,1,11485,,19
689,images/i30.bmp,scrambled,,,0.0,44.0,44.0,59.0,,,,,,,6.0,1.836,,,,,,,2016_Sep_19_1511,59.8884276929,Gestalt_exp1,1,11485,,30
690,images/INVk05.bmp,inverted,,,0.0,45.0,45.0,63.0,,,,,,,6.0,2.186,,,,,,,2016_Sep_19_1511,59.8884276929,Gestalt_exp1,1,11485,,05
691,images/i02.bmp,scrambled,,,0.0,46.0,46.0,31.0,,,,,,,5.0,1.537,,,,,,,2016_Sep_19_1511,59.8884276929,Gestalt_exp1,1,11485,,02
692,images/k24.bmp,gestalt,,,0.0,47.0,47.0,23.0,,,,,,,4.0,1.754,,,,,,,2016_Sep_19_1511,59.8884276929,Gestalt_exp1,1,11485,,24
693,images/k02.bmp,gestalt,,,0.0,48.0,48.0,1.0,,,,,,,5.0,1.253,,,,,,,2016_Sep_19_1511,59.8884276929,Gestalt_exp1,1,11485,,02
694,images/k29.bmp,gestalt,,,0.0,49.0,49.0,28.0,,,,,,,4.0,1.553,,,,,,,2016_Sep_19_1511,59.8884276929,Gestalt_exp1,1,11485,,29
695,images/i05.bmp,scrambled,,,0.0,50.0,50.0,34.0,,,,,,,4.0,1.402,,,,,,,2016_Sep_19_1511,59.8884276929,Gestalt_exp1,1,11485,,05
696,images/k08.bmp,gestalt,,,0.0,51.0,51.0,7.0,,,,,,,6.0,1.286,,,,,,,2016_Sep_19_1511,59.8884276929,Gestalt_exp1,1,11485,,08
697,images/INVk01.bmp,inverted,,,0.0,52.0,52.0,60.0,,,,,,,5.0,1.519,,,,,,,2016_Sep_19_1511,59.8884276929,Gestalt_exp1,1,11485,,01
698,images/i03.bmp,scrambled,,,0.0,53.0,53.0,32.0,,,,,,,5.0,1.47,,,,,,,2016_Sep_19_1511,59.8884276929,Gestalt_exp1,1,11485,,03
699,images/i13.bmp,scrambled,,,0.0,54.0,54.0,42.0,,,,,,,6.0,1.671,,,,,,,2016_Sep_19_1511,59.8884276929,Gestalt_exp1,1,11485,,13
700,images/k01.bmp,gestalt,,,0.0,55.0,55.0,0.0,,,,,,,6.0,1.403,,,,,,,2016_Sep_19_1511,59.8884276929,Gestalt_exp1,1,11485,,01
701,images/k25.bmp,gestalt,,,0.0,56.0,56.0,24.0,,,,,,,5.0,1.203,,,,,,,2016_Sep_19_1511,59.8884276929,Gestalt_exp1,1,11485,,25
702,images/INVk30.bmp,inverted,,,0.0,57.0,57.0,82.0,,,,,,,6.0,1.669,,,,,,,2016_Sep_19_1511,59.8884276929,Gestalt_exp1,1,11485,,30
703,images/i08.bmp,scrambled,,,0.0,58.0,58.0,37.0,,,,,,,7.0,1.552,,,,,,,2016_Sep_19_1511,59.8884276929,Gestalt_exp1,1,11485,,08
704,images/k03.bmp,gestalt,,,0.0,59.0,59.0,2.0,,,,,,,5.0,3.07,,,,,,,2016_Sep_19_1511,59.8884276929,Gestalt_exp1,1,11485,,03
705,images/i04.bmp,scrambled,,,0.0,60.0,60.0,33.0,,,,,,,5.0,1.586,,,,,,,2016_Sep_19_1511,59.8884276929,Gestalt_exp1,1,11485,,04
706,images/INVk23.bmp,inverted,,,0.0,61.0,61.0,75.0,,,,,,,5.0,1.669,,,,,,,2016_Sep_19_1511,59.8884276929,Gestalt_exp1,1,11485,,23
707,images/i27.bmp,scrambled,,,0.0,62.0,62.0,56.0,,,,,,,6.0,1.954,,,,,,,2016_Sep_19_1511,59.8884276929,Gestalt_exp1,1,11485,,27
708,images/k05.bmp,gestalt,,,0.0,63.0,63.0,4.0,,,,,,,4.0,1.82,,,,,,,2016_Sep_19_1511,59.8884276929,Gestalt_exp1,1,11485,,05
709,images/INVk12.bmp,inverted,,,0.0,64.0,64.0,67.0,,,,,,,4.0,1.469,,,,,,,2016_Sep_19_1511,59.8884276929,Gestalt_exp1,1,11485,,12
710,images/k26.bmp,gestalt,,,0.0,65.0,65.0,25.0,,,,,,,7.0,1.803,,,,,,,2016_Sep_19_1511,59.8884276929,Gestalt_exp1,1,11485,,26
711,images/i11.bmp,scrambled,,,0.0,66.0,66.0,40.0,,,,,,,4.0,1.519,,,,,,,2016_Sep_19_1511,59.8884276929,Gestalt_exp1,1,11485,,11
712,images/k17.bmp,gestalt,,,0.0,67.0,67.0,16.0,,,,,,,5.0,1.786,,,,,,,2016_Sep_19_1511,59.8884276929,Gestalt_exp1,1,11485,,17
713,images/i19.bmp,scrambled,,,0.0,68.0,68.0,48.0,,,,,,,4.0,1.536,,,,,,,2016_Sep_19_1511,59.8884276929,Gestalt_exp1,1,11485,,19
714,images/i07.bmp,scrambled,,,0.0,69.0,69.0,36.0,,,,,,,6.0,1.586,,,,,,,2016_Sep_19_1511,59.8884276929,Gestalt_exp1,1,11485,,07
715,images/INVk27.bmp,inverted,,,0.0,70.0,70.0,79.0,,,,,,,5.0,1.903,,,,,,,2016_Sep_19_1511,59.8884276929,Gestalt_exp1,1,11485,,27
716,images/i01.bmp,scrambled,,,0.0,71.0,71.0,30.0,,,,,,,5.0,1.386,,,,,,,2016_Sep_19_1511,59.8884276929,Gestalt_exp1,1,11485,,01
717,images/INVk21.bmp,inverted,,,0.0,72.0,72.0,73.0,,,,,,,5.0,2.87,,,,,,,2016_Sep_19_1511,59.8884276929,Gestalt_exp1,1,11485,,21
718,images/i21.bmp,scrambled,,,0.0,73.0,73.0,50.0,,,,,,,5.0,1.837,,,,,,,2016_Sep_19_1511,59.8884276929,Gestalt_exp1,1,11485,,21
719,images/k28.bmp,gestalt,,,0.0,74.0,74.0,27.0,,,,,,,6.0,1.403,,,,,,,2016_Sep_19_1511,59.8884276929,Gestalt_exp1,1,11485,,28
720,images/k20.bmp,gestalt,,,0.0,75.0,75.0,19.0,,,,,,,5.0,1.869,,,,,,,2016_Sep_19_1511,59.8884276929,Gestalt_exp1,1,11485,,20
721,images/k18.bmp,gestalt,,,0.0,76.0,76.0,17.0,,,,,,,6.0,2.486,,,,,,,2016_Sep_19_1511,59.8884276929,Gestalt_exp1,1,11485,,18
722,images/i28.bmp,scrambled,,,0.0,77.0,77.0,57.0,,,,,,,5.0,2.019,,,,,,,2016_Sep_19_1511,59.8884276929,Gestalt_exp1,1,11485,,28
723,images/i25.bmp,scrambled,,,0.0,78.0,78.0,54.0,,,,,,,4.0,1.92,,,,,,,2016_Sep_19_1511,59.8884276929,Gestalt_exp1,1,11485,,25
724,images/i16.bmp,scrambled,,,0.0,79.0,79.0,45.0,,,,,,,4.0,2.921,,,,,,,2016_Sep_19_1511,59.8884276929,Gestalt_exp1,1,11485,,16
725,images/INVk06.bmp,inverted,,,0.0,80.0,80.0,64.0,,,,,,,7.0,1.519,,,,,,,2016_Sep_19_1511,59.8884276929,Gestalt_exp1,1,11485,,06
726,images/INVk29.bmp,inverted,,,0.0,81.0,81.0,81.0,,,,,,,5.0,1.436,,,,,,,2016_Sep_19_1511,59.8884276929,Gestalt_exp1,1,11485,,29
727,images/i06.bmp,scrambled,,,0.0,82.0,82.0,35.0,,,,,,,5.0,1.854,,,,,,,2016_Sep_19_1511,59.8884276929,Gestalt_exp1,1,11485,,06
806,images/i02.bmp,scrambled,,,0.0,0.0,0.0,31.0,,,,,,,4.0,10.085,,,,,,,2016_Apr_15_1205,59.8039758064,Gestalt_exp1,1,11707,,02
807,images/INVk12.bmp,inverted,,,0.0,1.0,1.0,67.0,,,,,,,5.0,4.036,,,,,,,2016_Apr_15_1205,59.8039758064,Gestalt_exp1,1,11707,,12
808,images/INVk18.bmp,inverted,,,0.0,2.0,2.0,71.0,,,,,,,6.0,3.102,,,,,,,2016_Apr_15_1205,59.8039758064,Gestalt_exp1,1,11707,,18
809,images/i20.bmp,scrambled,,,0.0,3.0,3.0,49.0,,,,,,,4.0,3.769,,,,,,,2016_Apr_15_1205,59.8039758064,Gestalt_exp1,1,11707,,20
810,images/INVk26.bmp,inverted,,,0.0,4.0,4.0,78.0,,,,,,,5.0,3.453,,,,,,,2016_Apr_15_1205,59.8039758064,Gestalt_exp1,1,11707,,26
811,images/k22.bmp,gestalt,,,0.0,5.0,5.0,21.0,,,,,,,7.0,2.852,,,,,,,2016_Apr_15_1205,59.8039758064,Gestalt_exp1,1,11707,,22
812,images/i10.bmp,scrambled,,,0.0,6.0,6.0,39.0,,,,,,,5.0,5.069,,,,,,,2016_Apr_15_1205,59.8039758064,Gestalt_exp1,1,11707,,10
813,images/INVk09.bmp,inverted,,,0.0,7.0,7.0,65.0,,,,,,,5.0,2.118,,,,,,,2016_Apr_15_1205,59.8039758064,Gestalt_exp1,1,11707,,09
814,images/i24.bmp,scrambled,,,0.0,8.0,8.0,53.0,,,,,,,6.0,2.168,,,,,,,2016_Apr_15_1205,59.8039758064,Gestalt_exp1,1,11707,,24
815,images/i15.bmp,scrambled,,,0.0,9.0,9.0,44.0,,,,,,,7.0,2.652,,,,,,,2016_Apr_15_1205,59.8039758064,Gestalt_exp1,1,11707,,15
816,images/INVk30.bmp,inverted,,,0.0,10.0,10.0,82.0,,,,,,,5.0,3.085,,,,,,,2016_Apr_15_1205,59.8039758064,Gestalt_exp1,1,11707,,30
817,images/INVk04.bmp,inverted,,,0.0,11.0,11.0,62.0,,,,,,,4.0,3.219,,,,,,,2016_Apr_15_1205,59.8039758064,Gestalt_exp1,1,11707,,04
818,images/k21.bmp,gestalt,,,0.0,12.0,12.0,20.0,,,,,,,7.0,3.086,,,,,,,2016_Apr_15_1205,59.8039758064,Gestalt_exp1,1,11707,,21
819,images/INVk25.bmp,inverted,,,0.0,13.0,13.0,77.0,,,,,,,5.0,2.719,,,,,,,2016_Apr_15_1205,59.8039758064,Gestalt_exp1,1,11707,,25
820,images/k01.bmp,gestalt,,,0.0,14.0,14.0,0.0,,,,,,,6.0,2.718,,,,,,,2016_Apr_15_1205,59.8039758064,Gestalt_exp1,1,11707,,01
821,images/k09.bmp,gestalt,,,0.0,15.0,15.0,8.0,,,,,,,5.0,1.736,,,,,,,2016_Apr_15_1205,59.8039758064,Gestalt_exp1,1,11707,,09
822,images/i30.bmp,scrambled,,,0.0,16.0,16.0,59.0,,,,,,,7.0,2.386,,,,,,,2016_Apr_15_1205,59.8039758064,Gestalt_exp1,1,11707,,30
823,images/INVk15.bmp,inverted,,,0.0,17.0,17.0,69.0,,,,,,,5.0,2.786,,,,,,,2016_Apr_15_1205,59.8039758064,Gestalt_exp1,1,11707,,15
824,images/k24.bmp,gestalt,,,0.0,18.0,18.0,23.0,,,,,,,4.0,4.335,,,,,,,2016_Apr_15_1205,59.8039758064,Gestalt_exp1,1,11707,,24
825,images/i29.bmp,scrambled,,,0.0,19.0,19.0,58.0,,,,,,,5.0,1.868,,,,,,,2016_Apr_15_1205,59.8039758064,Gestalt_exp1,1,11707,,29
826,images/k28.bmp,gestalt,,,0.0,20.0,20.0,27.0,,,,,,,5.0,2.903,,,,,,,2016_Apr_15_1205,59.8039758064,Gestalt_exp1,1,11707,,28
827,images/k26.bmp,gestalt,,,0.0,21.0,21.0,25.0,,,,,,,6.0,2.152,,,,,,,2016_Apr_15_1205,59.8039758064,Gestalt_exp1,1,11707,,26
828,images/k05.bmp,gestalt,,,0.0,22.0,22.0,4.0,,,,,,,6.0,1.586,,,,,,,2016_Apr_15_1205,59.8039758064,Gestalt_exp1,1,11707,,05
829,images/INVk29.bmp,inverted,,,0.0,23.0,23.0,81.0,,,,,,,6.0,2.085,,,,,,,2016_Apr_15_1205,59.8039758064,Gestalt_exp1,1,11707,,29
830,images/INVk01.bmp,inverted,,,0.0,24.0,24.0,60.0,,,,,,,5.0,2.385,,,,,,,2016_Apr_15_1205,59.8039758064,Gestalt_exp1,1,11707,,01
831,images/k20.bmp,gestalt,,,0.0,25.0,25.0,19.0,,,,,,,4.0,2.419,,,,,,,2016_Apr_15_1205,59.8039758064,Gestalt_exp1,1,11707,,20
832,images/i14.bmp,scrambled,,,0.0,26.0,26.0,43.0,,,,,,,5.0,1.686,,,,,,,2016_Apr_15_1205,59.8039758064,Gestalt_exp1,1,11707,,14
833,images/i08.bmp,scrambled,,,0.0,27.0,27.0,37.0,,,,,,,6.0,1.502,,,,,,,2016_Apr_15_1205,59.8039758064,Gestalt_exp1,1,11707,,08
834,images/INVk14.bmp,inverted,,,0.0,28.0,28.0,68.0,,,,,,,7.0,2.952,,,,,,,2016_Apr_15_1205,59.8039758064,Gestalt_exp1,1,11707,,14
835,images/k06.bmp,gestalt,,,0.0,29.0,29.0,5.0,,,,,,,7.0,1.769,,,,,,,2016_Apr_15_1205,59.8039758064,Gestalt_exp1,1,11707,,06
836,images/i16.bmp,scrambled,,,0.0,30.0,30.0,45.0,,,,,,,4.0,2.102,,,,,,,2016_Apr_15_1205,59.8039758064,Gestalt_exp1,1,11707,,16
837,images/i18.bmp,scrambled,,,0.0,31.0,31.0,47.0,,,,,,,5.0,2.869,,,,,,,2016_Apr_15_1205,59.8039758064,Gestalt_exp1,1,11707,,18
838,images/INVk16.bmp,inverted,,,0.0,32.0,32.0,70.0,,,,,,,6.0,3.835,,,,,,,2016_Apr_15_1205,59.8039758064,Gestalt_exp1,1,11707,,16
839,images/i25.bmp,scrambled,,,0.0,33.0,33.0,54.0,,,,,,,4.0,1.735,,,,,,,2016_Apr_15_1205,59.8039758064,Gestalt_exp1,1,11707,,25
840,images/INVk21.bmp,inverted,,,0.0,34.0,34.0,73.0,,,,,,,5.0,1.652,,,,,,,2016_Apr_15_1205,59.8039758064,Gestalt_exp1,1,11707,,21
841,images/k23.bmp,gestalt,,,0.0,35.0,35.0,22.0,,,,,,,5.0,1.802,,,,,,,2016_Apr_15_1205,59.8039758064,Gestalt_exp1,1,11707,,23
842,images/i13.bmp,scrambled,,,0.0,36.0,36.0,42.0,,,,,,,6.0,1.719,,,,,,,2016_Apr_15_1205,59.8039758064,Gestalt_exp1,1,11707,,13
843,images/i03.bmp,scrambled,,,0.0,37.0,37.0,32.0,,,,,,,4.0,1.419,,,,,,,2016_Apr_15_1205,59.8039758064,Gestalt_exp1,1,11707,,03
844,images/i06.bmp,scrambled,,,0.0,38.0,38.0,35.0,,,,,,,5.0,1.652,,,,,,,2016_Apr_15_1205,59.8039758064,Gestalt_exp1,1,11707,,06
845,images/INVk24.bmp,inverted,,,0.0,39.0,39.0,76.0,,,,,,,4.0,2.419,,,,,,,2016_Apr_15_1205,59.8039758064,Gestalt_exp1,1,11707,,24
846,images/INVk03.bmp,inverted,,,0.0,40.0,40.0,61.0,,,,,,,4.0,1.802,,,,,,,2016_Apr_15_1205,59.8039758064,Gestalt_exp1,1,11707,,03
847,images/INVk19.bmp,inverted,,,0.0,41.0,41.0,72.0,,,,,,,5.0,1.985,,,,,,,2016_Apr_15_1205,59.8039758064,Gestalt_exp1,1,11707,,19
848,images/k29.bmp,gestalt,,,0.0,42.0,42.0,28.0,,,,,,,6.0,2.019,,,,,,,2016_Apr_15_1205,59.8039758064,Gestalt_exp1,1,11707,,29
849,images/k19.bmp,gestalt,,,0.0,43.0,43.0,18.0,,,,,,,5.0,2.036,,,,,,,2016_Apr_15_1205,59.8039758064,Gestalt_exp1,1,11707,,19
850,images/k13.bmp,gestalt,,,0.0,44.0,44.0,12.0,,,,,,,6.0,1.835,,,,,,,2016_Apr_15_1205,59.8039758064,Gestalt_exp1,1,11707,,13
851,images/i23.bmp,scrambled,,,0.0,45.0,45.0,52.0,,,,,,,5.0,1.734,,,,,,,2016_Apr_15_1205,59.8039758064,Gestalt_exp1,1,11707,,23
852,images/i11.bmp,scrambled,,,0.0,46.0,46.0,40.0,,,,,,,5.0,1.736,,,,,,,2016_Apr_15_1205,59.8039758064,Gestalt_exp1,1,11707,,11
853,images/k03.bmp,gestalt,,,0.0,47.0,47.0,2.0,,,,,,,4.0,1.852,,,,,,,2016_Apr_15_1205,59.8039758064,Gestalt_exp1,1,11707,,03
854,images/i09.bmp,scrambled,,,0.0,48.0,48.0,38.0,,,,,,,5.0,1.702,,,,,,,2016_Apr_15_1205,59.8039758064,Gestalt_exp1,1,11707,,09
855,images/k11.bmp,gestalt,,,0.0,49.0,49.0,10.0,,,,,,,6.0,1.953,,,,,,,2016_Apr_15_1205,59.8039758064,Gestalt_exp1,1,11707,,11
856,images/i28.bmp,scrambled,,,0.0,50.0,50.0,57.0,,,,,,,4.0,1.719,,,,,,,2016_Apr_15_1205,59.8039758064,Gestalt_exp1,1,11707,,28
857,images/k02.bmp,gestalt,,,0.0,51.0,51.0,1.0,,,,,,,5.0,2.185,,,,,,,2016_Apr_15_1205,59.8039758064,Gestalt_exp1,1,11707,,02
858,images/i12.bmp,scrambled,,,0.0,52.0,52.0,41.0,,,,,,,5.0,2.185,,,,,,,2016_Apr_15_1205,59.8039758064,Gestalt_exp1,1,11707,,12
859,images/k04.bmp,gestalt,,,0.0,53.0,53.0,3.0,,,,,,,4.0,2.319,,,,,,,2016_Apr_15_1205,59.8039758064,Gestalt_exp1,1,11707,,04
860,images/k12.bmp,gestalt,,,0.0,54.0,54.0,11.0,,,,,,,5.0,1.636,,,,,,,2016_Apr_15_1205,59.8039758064,Gestalt_exp1,1,11707,,12
861,images/k17.bmp,gestalt,,,0.0,55.0,55.0,16.0,,,,,,,4.0,1.502,,,,,,,2016_Apr_15_1205,59.8039758064,Gestalt_exp1,1,11707,,17
862,images/i27.bmp,scrambled,,,0.0,56.0,56.0,56.0,,,,,,,5.0,3.102,,,,,,,2016_Apr_15_1205,59.8039758064,Gestalt_exp1,1,11707,,27
863,images/INVk28.bmp,inverted,,,0.0,57.0,57.0,80.0,,,,,,,5.0,1.835,,,,,,,2016_Apr_15_1205,59.8039758064,Gestalt_exp1,1,11707,,28
864,images/k15.bmp,gestalt,,,0.0,58.0,58.0,14.0,,,,,,,5.0,1.485,,,,,,,2016_Apr_15_1205,59.8039758064,Gestalt_exp1,1,11707,,15
865,images/k25.bmp,gestalt,,,0.0,59.0,59.0,24.0,,,,,,,4.0,1.485,,,,,,,2016_Apr_15_1205,59.8039758064,Gestalt_exp1,1,11707,,25
866,images/INVk10.bmp,inverted,,,0.0,60.0,60.0,66.0,,,,,,,4.0,1.402,,,,,,,2016_Apr_15_1205,59.8039758064,Gestalt_exp1,1,11707,,10
867,images/i26.bmp,scrambled,,,0.0,61.0,61.0,55.0,,,,,,,5.0,2.602,,,,,,,2016_Apr_15_1205,59.8039758064,Gestalt_exp1,1,11707,,26
868,images/k10.bmp,gestalt,,,0.0,62.0,62.0,9.0,,,,,,,5.0,2.319,,,,,,,2016_Apr_15_1205,59.8039758064,Gestalt_exp1,1,11707,,10
869,images/INVk27.bmp,inverted,,,0.0,63.0,63.0,79.0,,,,,,,6.0,1.669,,,,,,,2016_Apr_15_1205,59.8039758064,Gestalt_exp1,1,11707,,27
870,images/INVk06.bmp,inverted,,,0.0,64.0,64.0,64.0,,,,,,,6.0,2.019,,,,,,,2016_Apr_15_1205,59.8039758064,Gestalt_exp1,1,11707,,06
871,images/k07.bmp,gestalt,,,0.0,65.0,65.0,6.0,,,,,,,5.0,1.585,,,,,,,2016_Apr_15_1205,59.8039758064,Gestalt_exp1,1,11707,,07
872,images/k27.bmp,gestalt,,,0.0,66.0,66.0,26.0,,,,,,,6.0,1.652,,,,,,,2016_Apr_15_1205,59.8039758064,Gestalt_exp1,1,11707,,27
873,images/k08.bmp,gestalt,,,0.0,67.0,67.0,7.0,,,,,,,6.0,1.785,,,,,,,2016_Apr_15_1205,59.8039758064,Gestalt_exp1,1,11707,,08
874,images/k18.bmp,gestalt,,,0.0,68.0,68.0,17.0,,,,,,,5.0,1.635,,,,,,,2016_Apr_15_1205,59.8039758064,Gestalt_exp1,1,11707,,18
875,images/INVk23.bmp,inverted,,,0.0,69.0,69.0,75.0,,,,,,,4.0,1.719,,,,,,,2016_Apr_15_1205,59.8039758064,Gestalt_exp1,1,11707,,23
876,images/i17.bmp,scrambled,,,0.0,70.0,70.0,46.0,,,,,,,3.0,1.835,,,,,,,2016_Apr_15_1205,59.8039758064,Gestalt_exp1,1,11707,,17
877,images/k30.bmp,gestalt,,,0.0,71.0,71.0,29.0,,,,,,,6.0,1.852,,,,,,,2016_Apr_15_1205,59.8039758064,Gestalt_exp1,1,11707,,30
878,images/INVk22.bmp,inverted,,,0.0,72.0,72.0,74.0,,,,,,,5.0,1.653,,,,,,,2016_Apr_15_1205,59.8039758064,Gestalt_exp1,1,11707,,22
879,images/INVk05.bmp,inverted,,,0.0,73.0,73.0,63.0,,,,,,,5.0,1.352,,,,,,,2016_Apr_15_1205,59.8039758064,Gestalt_exp1,1,11707,,05
880,images/i21.bmp,scrambled,,,0.0,74.0,74.0,50.0,,,,,,,5.0,2.519,,,,,,,2016_Apr_15_1205,59.8039758064,Gestalt_exp1,1,11707,,21
881,images/i05.bmp,scrambled,,,0.0,75.0,75.0,34.0,,,,,,,6.0,1.32,,,,,,,2016_Apr_15_1205,59.8039758064,Gestalt_exp1,1,11707,,05
882,images/i22.bmp,scrambled,,,0.0,76.0,76.0,51.0,,,,,,,5.0,1.519,,,,,,,2016_Apr_15_1205,59.8039758064,Gestalt_exp1,1,11707,,22
883,images/i04.bmp,scrambled,,,0.0,77.0,77.0,33.0,,,,,,,5.0,1.453,,,,,,,2016_Apr_15_1205,59.8039758064,Gestalt_exp1,1,11707,,04
884,images/k14.bmp,gestalt,,,0.0,78.0,78.0,13.0,,,,,,,6.0,1.502,,,,,,,2016_Apr_15_1205,59.8039758064,Gestalt_exp1,1,11707,,14
885,images/i07.bmp,scrambled,,,0.0,79.0,79.0,36.0,,,,,,,5.0,3.251,,,,,,,2016_Apr_15_1205,59.8039758064,Gestalt_exp1,1,11707,,07
886,images/i01.bmp,scrambled,,,0.0,80.0,80.0,30.0,,,,,,,5.0,1.652,,,,,,,2016_Apr_15_1205,59.8039758064,Gestalt_exp1,1,11707,,01
887,images/i19.bmp,scrambled,,,0.0,81.0,81.0,48.0,,,,,,,4.0,2.169,,,,,,,2016_Apr_15_1205,59.8039758064,Gestalt_exp1,1,11707,,19
888,images/k16.bmp,gestalt,,,0.0,82.0,82.0,15.0,,,,,,,4.0,1.319,,,,,,,2016_Apr_15_1205,59.8039758064,Gestalt_exp1,1,11707,,16
967,images/INVk10.bmp,inverted,,,0.0,0.0,0.0,66.0,,,,,,,5.0,4.352,,,,,,,2016_Apr_21_1606,59.9297583837,Gestalt_exp1,1,11755,,10
968,images/i20.bmp,scrambled,,,0.0,1.0,1.0,49.0,,,,,,,5.0,3.152,,,,,,,2016_Apr_21_1606,59.9297583837,Gestalt_exp1,1,11755,,20
969,images/i12.bmp,scrambled,,,0.0,2.0,2.0,41.0,,,,,,,7.0,4.119,,,,,,,2016_Apr_21_1606,59.9297583837,Gestalt_exp1,1,11755,,12
970,images/k04.bmp,gestalt,,,0.0,3.0,3.0,3.0,,,,,,,8.0,2.985,,,,,,,2016_Apr_21_1606,59.9297583837,Gestalt_exp1,1,11755,,04
971,images/INVk21.bmp,inverted,,,0.0,4.0,4.0,73.0,,,,,,,8.0,2.818,,,,,,,2016_Apr_21_1606,59.9297583837,Gestalt_exp1,1,11755,,21
972,images/k28.bmp,gestalt,,,0.0,5.0,5.0,27.0,,,,,,,4.0,3.27,,,,,,,2016_Apr_21_1606,59.9297583837,Gestalt_exp1,1,11755,,28
973,images/k05.bmp,gestalt,,,0.0,6.0,6.0,4.0,,,,,,,4.0,2.436,,,,,,,2016_Apr_21_1606,59.9297583837,Gestalt_exp1,1,11755,,05
974,images/i01.bmp,scrambled,,,0.0,7.0,7.0,30.0,,,,,,,8.0,3.017,,,,,,,2016_Apr_21_1606,59.9297583837,Gestalt_exp1,1,11755,,01
975,images/k21.bmp,gestalt,,,0.0,8.0,8.0,20.0,,,,,,,8.0,1.853,,,,,,,2016_Apr_21_1606,59.9297583837,Gestalt_exp1,1,11755,,21
976,images/INVk16.bmp,inverted,,,0.0,9.0,9.0,70.0,,,,,,,4.0,2.735,,,,,,,2016_Apr_21_1606,59.9297583837,Gestalt_exp1,1,11755,,16
977,images/i13.bmp,scrambled,,,0.0,10.0,10.0,42.0,,,,,,,7.0,2.251,,,,,,,2016_Apr_21_1606,59.9297583837,Gestalt_exp1,1,11755,,13
978,images/i21.bmp,scrambled,,,0.0,11.0,11.0,50.0,,,,,,,7.0,2.419,,,,,,,2016_Apr_21_1606,59.9297583837,Gestalt_exp1,1,11755,,21
979,images/INVk19.bmp,inverted,,,0.0,12.0,12.0,72.0,,,,,,,5.0,2.752,,,,,,,2016_Apr_21_1606,59.9297583837,Gestalt_exp1,1,11755,,19
980,images/INVk25.bmp,inverted,,,0.0,13.0,13.0,77.0,,,,,,,8.0,4.686,,,,,,,2016_Apr_21_1606,59.9297583837,Gestalt_exp1,1,11755,,25
981,images/INVk14.bmp,inverted,,,0.0,14.0,14.0,68.0,,,,,,,7.0,3.036,,,,,,,2016_Apr_21_1606,59.9297583837,Gestalt_exp1,1,11755,,14
982,images/INVk26.bmp,inverted,,,0.0,15.0,15.0,78.0,,,,,,,7.0,1.951,,,,,,,2016_Apr_21_1606,59.9297583837,Gestalt_exp1,1,11755,,26
983,images/INVk03.bmp,inverted,,,0.0,16.0,16.0,61.0,,,,,,,7.0,2.22,,,,,,,2016_Apr_21_1606,59.9297583837,Gestalt_exp1,1,11755,,03
984,images/k12.bmp,gestalt,,,0.0,17.0,17.0,11.0,,,,,,,8.0,1.735,,,,,,,2016_Apr_21_1606,59.9297583837,Gestalt_exp1,1,11755,,12
985,images/i30.bmp,scrambled,,,0.0,18.0,18.0,59.0,,,,,,,5.0,2.185,,,,,,,2016_Apr_21_1606,59.9297583837,Gestalt_exp1,1,11755,,30
986,images/INVk09.bmp,inverted,,,0.0,19.0,19.0,65.0,,,,,,,5.0,1.835,,,,,,,2016_Apr_21_1606,59.9297583837,Gestalt_exp1,1,11755,,09
987,images/INVk15.bmp,inverted,,,0.0,20.0,20.0,69.0,,,,,,,4.0,1.303,,,,,,,2016_Apr_21_1606,59.9297583837,Gestalt_exp1,1,11755,,15
988,images/k08.bmp,gestalt,,,0.0,21.0,21.0,7.0,,,,,,,4.0,1.835,,,,,,,2016_Apr_21_1606,59.9297583837,Gestalt_exp1,1,11755,,08
989,images/INVk30.bmp,inverted,,,0.0,22.0,22.0,82.0,,,,,,,5.0,1.452,,,,,,,2016_Apr_21_1606,59.9297583837,Gestalt_exp1,1,11755,,30
990,images/k09.bmp,gestalt,,,0.0,23.0,23.0,8.0,,,,,,,8.0,2.036,,,,,,,2016_Apr_21_1606,59.9297583837,Gestalt_exp1,1,11755,,09
991,images/i15.bmp,scrambled,,,0.0,24.0,24.0,44.0,,,,,,,6.0,1.736,,,,,,,2016_Apr_21_1606,59.9297583837,Gestalt_exp1,1,11755,,15
992,images/i17.bmp,scrambled,,,0.0,25.0,25.0,46.0,,,,,,,1.0,2.535,,,,,,,2016_Apr_21_1606,59.9297583837,Gestalt_exp1,1,11755,,17
993,images/i08.bmp,scrambled,,,0.0,26.0,26.0,37.0,,,,,,,7.0,1.436,,,,,,,2016_Apr_21_1606,59.9297583837,Gestalt_exp1,1,11755,,08
994,images/i18.bmp,scrambled,,,0.0,27.0,27.0,47.0,,,,,,,6.0,1.219,,,,,,,2016_Apr_21_1606,59.9297583837,Gestalt_exp1,1,11755,,18
995,images/k18.bmp,gestalt,,,0.0,28.0,28.0,17.0,,,,,,,7.0,1.552,,,,,,,2016_Apr_21_1606,59.9297583837,Gestalt_exp1,1,11755,,18
996,images/INVk05.bmp,inverted,,,0.0,29.0,29.0,63.0,,,,,,,5.0,1.952,,,,,,,2016_Apr_21_1606,59.9297583837,Gestalt_exp1,1,11755,,05
997,images/INVk22.bmp,inverted,,,0.0,30.0,30.0,74.0,,,,,,,3.0,1.819,,,,,,,2016_Apr_21_1606,59.9297583837,Gestalt_exp1,1,11755,,22
998,images/i25.bmp,scrambled,,,0.0,31.0,31.0,54.0,,,,,,,1.0,1.952,,,,,,,2016_Apr_21_1606,59.9297583837,Gestalt_exp1,1,11755,,25
999,images/i05.bmp,scrambled,,,0.0,32.0,32.0,34.0,,,,,,,5.0,1.702,,,,,,,2016_Apr_21_1606,59.9297583837,Gestalt_exp1,1,11755,,05
1000,images/k17.bmp,gestalt,,,0.0,33.0,33.0,16.0,,,,,,,1.0,1.669,,,,,,,2016_Apr_21_1606,59.9297583837,Gestalt_exp1,1,11755,,17
1001,images/i03.bmp,scrambled,,,0.0,34.0,34.0,32.0,,,,,,,4.0,1.887,,,,,,,2016_Apr_21_1606,59.9297583837,Gestalt_exp1,1,11755,,03
1002,images/k02.bmp,gestalt,,,0.0,35.0,35.0,1.0,,,,,,,5.0,1.585,,,,,,,2016_Apr_21_1606,59.9297583837,Gestalt_exp1,1,11755,,02
1003,images/INVk28.bmp,inverted,,,0.0,36.0,36.0,80.0,,,,,,,7.0,1.569,,,,,,,2016_Apr_21_1606,59.9297583837,Gestalt_exp1,1,11755,,28
1004,images/i24.bmp,scrambled,,,0.0,37.0,37.0,53.0,,,,,,,6.0,1.719,,,,,,,2016_Apr_21_1606,59.9297583837,Gestalt_exp1,1,11755,,24
1005,images/i19.bmp,scrambled,,,0.0,38.0,38.0,48.0,,,,,,,4.0,1.935,,,,,,,2016_Apr_21_1606,59.9297583837,Gestalt_exp1,1,11755,,19
1006,images/k07.bmp,gestalt,,,0.0,39.0,39.0,6.0,,,,,,,6.0,1.836,,,,,,,2016_Apr_21_1606,59.9297583837,Gestalt_exp1,1,11755,,07
1007,images/k11.bmp,gestalt,,,0.0,40.0,40.0,10.0,,,,,,,7.0,1.552,,,,,,,2016_Apr_21_1606,59.9297583837,Gestalt_exp1,1,11755,,11
1008,images/i06.bmp,scrambled,,,0.0,41.0,41.0,35.0,,,,,,,7.0,3.352,,,,,,,2016_Apr_21_1606,59.9297583837,Gestalt_exp1,1,11755,,06
1009,images/i23.bmp,scrambled,,,0.0,42.0,42.0,52.0,,,,,,,6.0,2.402,,,,,,,2016_Apr_21_1606,59.9297583837,Gestalt_exp1,1,11755,,23
1010,images/i28.bmp,scrambled,,,0.0,43.0,43.0,57.0,,,,,,,7.0,2.102,,,,,,,2016_Apr_21_1606,59.9297583837,Gestalt_exp1,1,11755,,28
1011,images/i14.bmp,scrambled,,,0.0,44.0,44.0,43.0,,,,,,,8.0,1.419,,,,,,,2016_Apr_21_1606,59.9297583837,Gestalt_exp1,1,11755,,14
1012,images/i02.bmp,scrambled,,,0.0,45.0,45.0,31.0,,,,,,,4.0,1.869,,,,,,,2016_Apr_21_1606,59.9297583837,Gestalt_exp1,1,11755,,02
1013,images/k03.bmp,gestalt,,,0.0,46.0,46.0,2.0,,,,,,,5.0,1.487,,,,,,,2016_Apr_21_1606,59.9297583837,Gestalt_exp1,1,11755,,03
1014,images/i16.bmp,scrambled,,,0.0,47.0,47.0,45.0,,,,,,,6.0,1.502,,,,,,,2016_Apr_21_1606,59.9297583837,Gestalt_exp1,1,11755,,16
1015,images/INVk06.bmp,inverted,,,0.0,48.0,48.0,64.0,,,,,,,8.0,1.902,,,,,,,2016_Apr_21_1606,59.9297583837,Gestalt_exp1,1,11755,,06
1016,images/k06.bmp,gestalt,,,0.0,49.0,49.0,5.0,,,,,,,8.0,1.552,,,,,,,2016_Apr_21_1606,59.9297583837,Gestalt_exp1,1,11755,,06
1017,images/i10.bmp,scrambled,,,0.0,50.0,50.0,39.0,,,,,,,7.0,1.468,,,,,,,2016_Apr_21_1606,59.9297583837,Gestalt_exp1,1,11755,,10
1018,images/k14.bmp,gestalt,,,0.0,51.0,51.0,13.0,,,,,,,8.0,2.652,,,,,,,2016_Apr_21_1606,59.9297583837,Gestalt_exp1,1,11755,,14
1019,images/k30.bmp,gestalt,,,0.0,52.0,52.0,29.0,,,,,,,9.0,1.185,,,,,,,2016_Apr_21_1606,59.9297583837,Gestalt_exp1,1,11755,,30
1020,images/k15.bmp,gestalt,,,0.0,53.0,53.0,14.0,,,,,,,3.0,1.802,,,,,,,2016_Apr_21_1606,59.9297583837,Gestalt_exp1,1,11755,,15
1021,images/INVk23.bmp,inverted,,,0.0,54.0,54.0,75.0,,,,,,,5.0,1.386,,,,,,,2016_Apr_21_1606,59.9297583837,Gestalt_exp1,1,11755,,23
1022,images/i04.bmp,scrambled,,,0.0,55.0,55.0,33.0,,,,,,,6.0,1.419,,,,,,,2016_Apr_21_1606,59.9297583837,Gestalt_exp1,1,11755,,04
1023,images/INVk18.bmp,inverted,,,0.0,56.0,56.0,71.0,,,,,,,6.0,1.302,,,,,,,2016_Apr_21_1606,59.9297583837,Gestalt_exp1,1,11755,,18
1024,images/INVk24.bmp,inverted,,,0.0,57.0,57.0,76.0,,,,,,,2.0,1.569,,,,,,,2016_Apr_21_1606,59.9297583837,Gestalt_exp1,1,11755,,24
1025,images/k23.bmp,gestalt,,,0.0,58.0,58.0,22.0,,,,,,,2.0,1.552,,,,,,,2016_Apr_21_1606,59.9297583837,Gestalt_exp1,1,11755,,23
1026,images/k01.bmp,gestalt,,,0.0,59.0,59.0,0.0,,,,,,,2.0,3.852,,,,,,,2016_Apr_21_1606,59.9297583837,Gestalt_exp1,1,11755,,01
1027,images/i29.bmp,scrambled,,,0.0,60.0,60.0,58.0,,,,,,,1.0,1.285,,,,,,,2016_Apr_21_1606,59.9297583837,Gestalt_exp1,1,11755,,29
1028,images/k10.bmp,gestalt,,,0.0,61.0,61.0,9.0,,,,,,,1.0,1.452,,,,,,,2016_Apr_21_1606,59.9297583837,Gestalt_exp1,1,11755,,10
1029,images/i22.bmp,scrambled,,,0.0,62.0,62.0,51.0,,,,,,,5.0,2.169,,,,,,,2016_Apr_21_1606,59.9297583837,Gestalt_exp1,1,11755,,22
1030,images/k24.bmp,gestalt,,,0.0,63.0,63.0,23.0,,,,,,,3.0,1.535,,,,,,,2016_Apr_21_1606,59.9297583837,Gestalt_exp1,1,11755,,24
1031,images/INVk27.bmp,inverted,,,0.0,64.0,64.0,79.0,,,,,,,7.0,1.902,,,,,,,2016_Apr_21_1606,59.9297583837,Gestalt_exp1,1,11755,,27
1032,images/k25.bmp,gestalt,,,0.0,65.0,65.0,24.0,,,,,,,6.0,1.052,,,,,,,2016_Apr_21_1606,59.9297583837,Gestalt_exp1,1,11755,,25
1033,images/k26.bmp,gestalt,,,0.0,66.0,66.0,25.0,,,,,,,9.0,1.902,,,,,,,2016_Apr_21_1606,59.9297583837,Gestalt_exp1,1,11755,,26
1034,images/k27.bmp,gestalt,,,0.0,67.0,67.0,26.0,,,,,,,8.0,1.885,,,,,,,2016_Apr_21_1606,59.9297583837,Gestalt_exp1,1,11755,,27
1035,images/i11.bmp,scrambled,,,0.0,68.0,68.0,40.0,,,,,,,9.0,1.719,,,,,,,2016_Apr_21_1606,59.9297583837,Gestalt_exp1,1,11755,,11
1036,images/k22.bmp,gestalt,,,0.0,69.0,69.0,21.0,,,,,,,7.0,2.019,,,,,,,2016_Apr_21_1606,59.9297583837,Gestalt_exp1,1,11755,,22
1037,images/i26.bmp,scrambled,,,0.0,70.0,70.0,55.0,,,,,,,9.0,1.502,,,,,,,2016_Apr_21_1606,59.9297583837,Gestalt_exp1,1,11755,,26
1038,images/k16.bmp,gestalt,,,0.0,71.0,71.0,15.0,,,,,,,4.0,2.053,,,,,,,2016_Apr_21_1606,59.9297583837,Gestalt_exp1,1,11755,,16
1039,images/INVk29.bmp,inverted,,,0.0,72.0,72.0,81.0,,,,,,,2.0,1.102,,,,,,,2016_Apr_21_1606,59.9297583837,Gestalt_exp1,1,11755,,29
1040,images/INVk01.bmp,inverted,,,0.0,73.0,73.0,60.0,,,,,,,5.0,2.352,,,,,,,2016_Apr_21_1606,59.9297583837,Gestalt_exp1,1,11755,,01
1041,images/INVk04.bmp,inverted,,,0.0,74.0,74.0,62.0,,,,,,,7.0,1.253,,,,,,,2016_Apr_21_1606,59.9297583837,Gestalt_exp1,1,11755,,04
1042,images/k29.bmp,gestalt,,,0.0,75.0,75.0,28.0,,,,,,,3.0,1.936,,,,,,,2016_Apr_21_1606,59.9297583837,Gestalt_exp1,1,11755,,29
1043,images/k19.bmp,gestalt,,,0.0,76.0,76.0,18.0,,,,,,,3.0,1.735,,,,,,,2016_Apr_21_1606,59.9297583837,Gestalt_exp1,1,11755,,19
1044,images/k20.bmp,gestalt,,,0.0,77.0,77.0,19.0,,,,,,,5.0,2.152,,,,,,,2016_Apr_21_1606,59.9297583837,Gestalt_exp1,1,11755,,20
1045,images/k13.bmp,gestalt,,,0.0,78.0,78.0,12.0,,,,,,,8.0,1.802,,,,,,,2016_Apr_21_1606,59.9297583837,Gestalt_exp1,1,11755,,13
1046,images/i07.bmp,scrambled,,,0.0,79.0,79.0,36.0,,,,,,,7.0,2.302,,,,,,,2016_Apr_21_1606,59.9297583837,Gestalt_exp1,1,11755,,07
1047,images/i09.bmp,scrambled,,,0.0,80.0,80.0,38.0,,,,,,,7.0,1.252,,,,,,,2016_Apr_21_1606,59.9297583837,Gestalt_exp1,1,11755,,09
1048,images/i27.bmp,scrambled,,,0.0,81.0,81.0,56.0,,,,,,,8.0,1.385,,,,,,,2016_Apr_21_1606,59.9297583837,Gestalt_exp1,1,11755,,27
1049,images/INVk12.bmp,inverted,,,0.0,82.0,82.0,67.0,,,,,,,8.0,1.569,,,,,,,2016_Apr_21_1606,59.9297583837,Gestalt_exp1,1,11755,,12
1128,images/k08.bmp,gestalt,,,0.0,0.0,0.0,7.0,,,,,,,2.0,9.035,,,,,,,2016_Sep_26_1705,59.9161463311,Gestalt_exp1,1,11758,,08
1129,images/k07.bmp,gestalt,,,0.0,1.0,1.0,6.0,,,,,,,2.0,4.169,,,,,,,2016_Sep_26_1705,59.9161463311,Gestalt_exp1,1,11758,,07
1130,images/i10.bmp,scrambled,,,0.0,2.0,2.0,39.0,,,,,,,2.0,10.185,,,,,,,2016_Sep_26_1705,59.9161463311,Gestalt_exp1,1,11758,,10
1131,images/i14.bmp,scrambled,,,0.0,3.0,3.0,43.0,,,,,,,2.0,2.068,,,,,,,2016_Sep_26_1705,59.9161463311,Gestalt_exp1,1,11758,,14
1132,images/INVk12.bmp,inverted,,,0.0,4.0,4.0,67.0,,,,,,,2.0,2.568,,,,,,,2016_Sep_26_1705,59.9161463311,Gestalt_exp1,1,11758,,12
1133,images/k23.bmp,gestalt,,,0.0,5.0,5.0,22.0,,,,,,,2.0,2.818,,,,,,,2016_Sep_26_1705,59.9161463311,Gestalt_exp1,1,11758,,23
1134,images/k03.bmp,gestalt,,,0.0,6.0,6.0,2.0,,,,,,,2.0,4.585,,,,,,,2016_Sep_26_1705,59.9161463311,Gestalt_exp1,1,11758,,03
1135,images/i27.bmp,scrambled,,,0.0,7.0,7.0,56.0,,,,,,,2.0,2.668,,,,,,,2016_Sep_26_1705,59.9161463311,Gestalt_exp1,1,11758,,27
1136,images/k25.bmp,gestalt,,,0.0,8.0,8.0,24.0,,,,,,,2.0,2.769,,,,,,,2016_Sep_26_1705,59.9161463311,Gestalt_exp1,1,11758,,25
1137,images/INVk28.bmp,inverted,,,0.0,9.0,9.0,80.0,,,,,,,2.0,2.885,,,,,,,2016_Sep_26_1705,59.9161463311,Gestalt_exp1,1,11758,,28
1138,images/i03.bmp,scrambled,,,0.0,10.0,10.0,32.0,,,,,,,2.0,4.219,,,,,,,2016_Sep_26_1705,59.9161463311,Gestalt_exp1,1,11758,,03
1139,images/INVk14.bmp,inverted,,,0.0,11.0,11.0,68.0,,,,,,,5.0,3.802,,,,,,,2016_Sep_26_1705,59.9161463311,Gestalt_exp1,1,11758,,14
1140,images/i09.bmp,scrambled,,,0.0,12.0,12.0,38.0,,,,,,,2.0,2.52,,,,,,,2016_Sep_26_1705,59.9161463311,Gestalt_exp1,1,11758,,09
1141,images/INVk04.bmp,inverted,,,0.0,13.0,13.0,62.0,,,,,,,2.0,1.786,,,,,,,2016_Sep_26_1705,59.9161463311,Gestalt_exp1,1,11758,,04
1142,images/INVk25.bmp,inverted,,,0.0,14.0,14.0,77.0,,,,,,,4.0,2.402,,,,,,,2016_Sep_26_1705,59.9161463311,Gestalt_exp1,1,11758,,25
1143,images/INVk29.bmp,inverted,,,0.0,15.0,15.0,81.0,,,,,,,2.0,2.119,,,,,,,2016_Sep_26_1705,59.9161463311,Gestalt_exp1,1,11758,,29
1144,images/k04.bmp,gestalt,,,0.0,16.0,16.0,3.0,,,,,,,2.0,1.952,,,,,,,2016_Sep_26_1705,59.9161463311,Gestalt_exp1,1,11758,,04
1145,images/INVk30.bmp,inverted,,,0.0,17.0,17.0,82.0,,,,,,,5.0,2.151,,,,,,,2016_Sep_26_1705,59.9161463311,Gestalt_exp1,1,11758,,30
1146,images/k19.bmp,gestalt,,,0.0,18.0,18.0,18.0,,,,,,,2.0,1.635,,,,,,,2016_Sep_26_1705,59.9161463311,Gestalt_exp1,1,11758,,19
1147,images/k16.bmp,gestalt,,,0.0,19.0,19.0,15.0,,,,,,,2.0,1.752,,,,,,,2016_Sep_26_1705,59.9161463311,Gestalt_exp1,1,11758,,16
1148,images/k24.bmp,gestalt,,,0.0,20.0,20.0,23.0,,,,,,,2.0,1.77,,,,,,,2016_Sep_26_1705,59.9161463311,Gestalt_exp1,1,11758,,24
1149,images/i13.bmp,scrambled,,,0.0,21.0,21.0,42.0,,,,,,,4.0,1.952,,,,,,,2016_Sep_26_1705,59.9161463311,Gestalt_exp1,1,11758,,13
1150,images/i29.bmp,scrambled,,,0.0,22.0,22.0,58.0,,,,,,,2.0,1.935,,,,,,,2016_Sep_26_1705,59.9161463311,Gestalt_exp1,1,11758,,29
1151,images/i06.bmp,scrambled,,,0.0,23.0,23.0,35.0,,,,,,,4.0,3.068,,,,,,,2016_Sep_26_1705,59.9161463311,Gestalt_exp1,1,11758,,06
1152,images/INVk22.bmp,inverted,,,0.0,24.0,24.0,74.0,,,,,,,2.0,1.785,,,,,,,2016_Sep_26_1705,59.9161463311,Gestalt_exp1,1,11758,,22
1153,images/INVk05.bmp,inverted,,,0.0,25.0,25.0,63.0,,,,,,,2.0,1.602,,,,,,,2016_Sep_26_1705,59.9161463311,Gestalt_exp1,1,11758,,05
1154,images/k05.bmp,gestalt,,,0.0,26.0,26.0,4.0,,,,,,,2.0,1.97,,,,,,,2016_Sep_26_1705,59.9161463311,Gestalt_exp1,1,11758,,05
1155,images/i07.bmp,scrambled,,,0.0,27.0,27.0,36.0,,,,,,,4.0,1.535,,,,,,,2016_Sep_26_1705,59.9161463311,Gestalt_exp1,1,11758,,07
1156,images/i21.bmp,scrambled,,,0.0,28.0,28.0,50.0,,,,,,,2.0,1.451,,,,,,,2016_Sep_26_1705,59.9161463311,Gestalt_exp1,1,11758,,21
1157,images/i23.bmp,scrambled,,,0.0,29.0,29.0,52.0,,,,,,,2.0,1.985,,,,,,,2016_Sep_26_1705,59.9161463311,Gestalt_exp1,1,11758,,23
1158,images/i02.bmp,scrambled,,,0.0,30.0,30.0,31.0,,,,,,,2.0,3.002,,,,,,,2016_Sep_26_1705,59.9161463311,Gestalt_exp1,1,11758,,02
1159,images/k20.bmp,gestalt,,,0.0,31.0,31.0,19.0,,,,,,,2.0,4.102,,,,,,,2016_Sep_26_1705,59.9161463311,Gestalt_exp1,1,11758,,20
1160,images/k26.bmp,gestalt,,,0.0,32.0,32.0,25.0,,,,,,,5.0,2.336,,,,,,,2016_Sep_26_1705,59.9161463311,Gestalt_exp1,1,11758,,26
1161,images/i24.bmp,scrambled,,,0.0,33.0,33.0,53.0,,,,,,,2.0,1.619,,,,,,,2016_Sep_26_1705,59.9161463311,Gestalt_exp1,1,11758,,24
1162,images/i28.bmp,scrambled,,,0.0,34.0,34.0,57.0,,,,,,,2.0,5.452,,,,,,,2016_Sep_26_1705,59.9161463311,Gestalt_exp1,1,11758,,28
1163,images/k27.bmp,gestalt,,,0.0,35.0,35.0,26.0,,,,,,,2.0,1.72,,,,,,,2016_Sep_26_1705,59.9161463311,Gestalt_exp1,1,11758,,27
1164,images/k09.bmp,gestalt,,,0.0,36.0,36.0,8.0,,,,,,,3.0,1.635,,,,,,,2016_Sep_26_1705,59.9161463311,Gestalt_exp1,1,11758,,09
1165,images/INVk26.bmp,inverted,,,0.0,37.0,37.0,78.0,,,,,,,3.0,1.719,,,,,,,2016_Sep_26_1705,59.9161463311,Gestalt_exp1,1,11758,,26
1166,images/k13.bmp,gestalt,,,0.0,38.0,38.0,12.0,,,,,,,2.0,1.802,,,,,,,2016_Sep_26_1705,59.9161463311,Gestalt_exp1,1,11758,,13
1167,images/k28.bmp,gestalt,,,0.0,39.0,39.0,27.0,,,,,,,2.0,1.369,,,,,,,2016_Sep_26_1705,59.9161463311,Gestalt_exp1,1,11758,,28
1168,images/i11.bmp,scrambled,,,0.0,40.0,40.0,40.0,,,,,,,3.0,2.252,,,,,,,2016_Sep_26_1705,59.9161463311,Gestalt_exp1,1,11758,,11
1169,images/INVk10.bmp,inverted,,,0.0,41.0,41.0,66.0,,,,,,,1.0,1.753,,,,,,,2016_Sep_26_1705,59.9161463311,Gestalt_exp1,1,11758,,10
1170,images/INVk09.bmp,inverted,,,0.0,42.0,42.0,65.0,,,,,,,2.0,2.252,,,,,,,2016_Sep_26_1705,59.9161463311,Gestalt_exp1,1,11758,,09
1171,images/INVk19.bmp,inverted,,,0.0,43.0,43.0,72.0,,,,,,,3.0,1.335,,,,,,,2016_Sep_26_1705,59.9161463311,Gestalt_exp1,1,11758,,19
1172,images/i15.bmp,scrambled,,,0.0,44.0,44.0,44.0,,,,,,,2.0,2.468,,,,,,,2016_Sep_26_1705,59.9161463311,Gestalt_exp1,1,11758,,15
1173,images/k11.bmp,gestalt,,,0.0,45.0,45.0,10.0,,,,,,,4.0,2.302,,,,,,,2016_Sep_26_1705,59.9161463311,Gestalt_exp1,1,11758,,11
1174,images/k22.bmp,gestalt,,,0.0,46.0,46.0,21.0,,,,,,,2.0,1.586,,,,,,,2016_Sep_26_1705,59.9161463311,Gestalt_exp1,1,11758,,22
1175,images/i18.bmp,scrambled,,,0.0,47.0,47.0,47.0,,,,,,,2.0,1.37,,,,,,,2016_Sep_26_1705,59.9161463311,Gestalt_exp1,1,11758,,18
1176,images/k18.bmp,gestalt,,,0.0,48.0,48.0,17.0,,,,,,,2.0,2.302,,,,,,,2016_Sep_26_1705,59.9161463311,Gestalt_exp1,1,11758,,18
1177,images/i26.bmp,scrambled,,,0.0,49.0,49.0,55.0,,,,,,,2.0,2.385,,,,,,,2016_Sep_26_1705,59.9161463311,Gestalt_exp1,1,11758,,26
1178,images/i22.bmp,scrambled,,,0.0,50.0,50.0,51.0,,,,,,,2.0,2.219,,,,,,,2016_Sep_26_1705,59.9161463311,Gestalt_exp1,1,11758,,22
1179,images/i01.bmp,scrambled,,,0.0,51.0,51.0,30.0,,,,,,,2.0,1.652,,,,,,,2016_Sep_26_1705,59.9161463311,Gestalt_exp1,1,11758,,01
1180,images/i19.bmp,scrambled,,,0.0,52.0,52.0,48.0,,,,,,,2.0,1.818,,,,,,,2016_Sep_26_1705,59.9161463311,Gestalt_exp1,1,11758,,19
1181,images/i05.bmp,scrambled,,,0.0,53.0,53.0,34.0,,,,,,,2.0,2.168,,,,,,,2016_Sep_26_1705,59.9161463311,Gestalt_exp1,1,11758,,05
1182,images/k14.bmp,gestalt,,,0.0,54.0,54.0,13.0,,,,,,,5.0,2.768,,,,,,,2016_Sep_26_1705,59.9161463311,Gestalt_exp1,1,11758,,14
1183,images/i08.bmp,scrambled,,,0.0,55.0,55.0,37.0,,,,,,,4.0,1.302,,,,,,,2016_Sep_26_1705,59.9161463311,Gestalt_exp1,1,11758,,08
1184,images/INVk16.bmp,inverted,,,0.0,56.0,56.0,70.0,,,,,,,2.0,3.518,,,,,,,2016_Sep_26_1705,59.9161463311,Gestalt_exp1,1,11758,,16
1185,images/INVk15.bmp,inverted,,,0.0,57.0,57.0,69.0,,,,,,,2.0,1.402,,,,,,,2016_Sep_26_1705,59.9161463311,Gestalt_exp1,1,11758,,15
1186,images/INVk18.bmp,inverted,,,0.0,58.0,58.0,71.0,,,,,,,2.0,1.719,,,,,,,2016_Sep_26_1705,59.9161463311,Gestalt_exp1,1,11758,,18
1187,images/INVk01.bmp,inverted,,,0.0,59.0,59.0,60.0,,,,,,,2.0,2.285,,,,,,,2016_Sep_26_1705,59.9161463311,Gestalt_exp1,1,11758,,01
1188,images/k15.bmp,gestalt,,,0.0,60.0,60.0,14.0,,,,,,,2.0,2.102,,,,,,,2016_Sep_26_1705,59.9161463311,Gestalt_exp1,1,11758,,15
1189,images/INVk03.bmp,inverted,,,0.0,61.0,61.0,61.0,,,,,,,4.0,2.72,,,,,,,2016_Sep_26_1705,59.9161463311,Gestalt_exp1,1,11758,,03
1190,images/INVk21.bmp,inverted,,,0.0,62.0,62.0,73.0,,,,,,,2.0,1.536,,,,,,,2016_Sep_26_1705,59.9161463311,Gestalt_exp1,1,11758,,21
1191,images/i04.bmp,scrambled,,,0.0,63.0,63.0,33.0,,,,,,,2.0,1.718,,,,,,,2016_Sep_26_1705,59.9161463311,Gestalt_exp1,1,11758,,04
1192,images/i17.bmp,scrambled,,,0.0,64.0,64.0,46.0,,,,,,,2.0,1.869,,,,,,,2016_Sep_26_1705,59.9161463311,Gestalt_exp1,1,11758,,17
1193,images/k21.bmp,gestalt,,,0.0,65.0,65.0,20.0,,,,,,,3.0,1.836,,,,,,,2016_Sep_26_1705,59.9161463311,Gestalt_exp1,1,11758,,21
1194,images/k02.bmp,gestalt,,,0.0,66.0,66.0,1.0,,,,,,,2.0,2.002,,,,,,,2016_Sep_26_1705,59.9161463311,Gestalt_exp1,1,11758,,02
1195,images/i16.bmp,scrambled,,,0.0,67.0,67.0,45.0,,,,,,,2.0,1.602,,,,,,,2016_Sep_26_1705,59.9161463311,Gestalt_exp1,1,11758,,16
1196,images/i12.bmp,scrambled,,,0.0,68.0,68.0,41.0,,,,,,,2.0,1.402,,,,,,,2016_Sep_26_1705,59.9161463311,Gestalt_exp1,1,11758,,12
1197,images/i25.bmp,scrambled,,,0.0,69.0,69.0,54.0,,,,,,,2.0,1.502,,,,,,,2016_Sep_26_1705,59.9161463311,Gestalt_exp1,1,11758,,25
1198,images/k17.bmp,gestalt,,,0.0,70.0,70.0,16.0,,,,,,,2.0,1.569,,,,,,,2016_Sep_26_1705,59.9161463311,Gestalt_exp1,1,11758,,17
1199,images/k06.bmp,gestalt,,,0.0,71.0,71.0,5.0,,,,,,,4.0,2.302,,,,,,,2016_Sep_26_1705,59.9161463311,Gestalt_exp1,1,11758,,06
1200,images/i30.bmp,scrambled,,,0.0,72.0,72.0,59.0,,,,,,,2.0,1.452,,,,,,,2016_Sep_26_1705,59.9161463311,Gestalt_exp1,1,11758,,30
1201,images/i20.bmp,scrambled,,,0.0,73.0,73.0,49.0,,,,,,,2.0,1.785,,,,,,,2016_Sep_26_1705,59.9161463311,Gestalt_exp1,1,11758,,20
1202,images/k29.bmp,gestalt,,,0.0,74.0,74.0,28.0,,,,,,,2.0,2.135,,,,,,,2016_Sep_26_1705,59.9161463311,Gestalt_exp1,1,11758,,29
1203,images/INVk23.bmp,inverted,,,0.0,75.0,75.0,75.0,,,,,,,4.0,2.419,,,,,,,2016_Sep_26_1705,59.9161463311,Gestalt_exp1,1,11758,,23
1204,images/k12.bmp,gestalt,,,0.0,76.0,76.0,11.0,,,,,,,4.0,3.734,,,,,,,2016_Sep_26_1705,59.9161463311,Gestalt_exp1,1,11758,,12
1205,images/k30.bmp,gestalt,,,0.0,77.0,77.0,29.0,,,,,,,4.0,1.502,,,,,,,2016_Sep_26_1705,59.9161463311,Gestalt_exp1,1,11758,,30
1206,images/INVk06.bmp,inverted,,,0.0,78.0,78.0,64.0,,,,,,,5.0,2.151,,,,,,,2016_Sep_26_1705,59.9161463311,Gestalt_exp1,1,11758,,06
1207,images/INVk24.bmp,inverted,,,0.0,79.0,79.0,76.0,,,,,,,2.0,1.535,,,,,,,2016_Sep_26_1705,59.9161463311,Gestalt_exp1,1,11758,,24
1208,images/INVk27.bmp,inverted,,,0.0,80.0,80.0,79.0,,,,,,,5.0,1.736,,,,,,,2016_Sep_26_1705,59.9161463311,Gestalt_exp1,1,11758,,27
1209,images/k10.bmp,gestalt,,,0.0,81.0,81.0,9.0,,,,,,,2.0,1.319,,,,,,,2016_Sep_26_1705,59.9161463311,Gestalt_exp1,1,11758,,10
1210,images/k01.bmp,gestalt,,,0.0,82.0,82.0,0.0,,,,,,,2.0,1.269,,,,,,,2016_Sep_26_1705,59.9161463311,Gestalt_exp1,1,11758,,01
1289,images/i07.bmp,scrambled,,,0.0,0.0,0.0,36.0,,,,,,,2.0,6.118,,,,,,,2016_Oct_03_1406,59.8820149965,Gestalt_exp1,1,12139,,07
1290,images/i21.bmp,scrambled,,,0.0,1.0,1.0,50.0,,,,,,,2.0,3.353,,,,,,,2016_Oct_03_1406,59.8820149965,Gestalt_exp1,1,12139,,21
1291,images/i13.bmp,scrambled,,,0.0,2.0,2.0,42.0,,,,,,,5.0,5.869,,,,,,,2016_Oct_03_1406,59.8820149965,Gestalt_exp1,1,12139,,13
1292,images/k09.bmp,gestalt,,,0.0,3.0,3.0,8.0,,,,,,,6.0,3.285,,,,,,,2016_Oct_03_1406,59.8820149965,Gestalt_exp1,1,12139,,09
1293,images/k21.bmp,gestalt,,,0.0,4.0,4.0,20.0,,,,,,,6.0,1.952,,,,,,,2016_Oct_03_1406,59.8820149965,Gestalt_exp1,1,12139,,21
1294,images/INVk05.bmp,inverted,,,0.0,5.0,5.0,63.0,,,,,,,7.0,2.202,,,,,,,2016_Oct_03_1406,59.8820149965,Gestalt_exp1,1,12139,,05
1295,images/INVk06.bmp,inverted,,,0.0,6.0,6.0,64.0,,,,,,,7.0,2.152,,,,,,,2016_Oct_03_1406,59.8820149965,Gestalt_exp1,1,12139,,06
1296,images/INVk14.bmp,inverted,,,0.0,7.0,7.0,68.0,,,,,,,8.0,2.285,,,,,,,2016_Oct_03_1406,59.8820149965,Gestalt_exp1,1,12139,,14
1297,images/k17.bmp,gestalt,,,0.0,8.0,8.0,16.0,,,,,,,7.0,2.485,,,,,,,2016_Oct_03_1406,59.8820149965,Gestalt_exp1,1,12139,,17
1298,images/i17.bmp,scrambled,,,0.0,9.0,9.0,46.0,,,,,,,4.0,3.352,,,,,,,2016_Oct_03_1406,59.8820149965,Gestalt_exp1,1,12139,,17
1299,images/i18.bmp,scrambled,,,0.0,10.0,10.0,47.0,,,,,,,6.0,1.702,,,,,,,2016_Oct_03_1406,59.8820149965,Gestalt_exp1,1,12139,,18
1300,images/i11.bmp,scrambled,,,0.0,11.0,11.0,40.0,,,,,,,2.0,2.502,,,,,,,2016_Oct_03_1406,59.8820149965,Gestalt_exp1,1,12139,,11
1301,images/k24.bmp,gestalt,,,0.0,12.0,12.0,23.0,,,,,,,3.0,1.936,,,,,,,2016_Oct_03_1406,59.8820149965,Gestalt_exp1,1,12139,,24
1302,images/i29.bmp,scrambled,,,0.0,13.0,13.0,58.0,,,,,,,3.0,1.935,,,,,,,2016_Oct_03_1406,59.8820149965,Gestalt_exp1,1,12139,,29
1303,images/k01.bmp,gestalt,,,0.0,14.0,14.0,0.0,,,,,,,4.0,1.736,,,,,,,2016_Oct_03_1406,59.8820149965,Gestalt_exp1,1,12139,,01
1304,images/k22.bmp,gestalt,,,0.0,15.0,15.0,21.0,,,,,,,2.0,2.336,,,,,,,2016_Oct_03_1406,59.8820149965,Gestalt_exp1,1,12139,,22
1305,images/INVk18.bmp,inverted,,,0.0,16.0,16.0,71.0,,,,,,,5.0,2.903,,,,,,,2016_Oct_03_1406,59.8820149965,Gestalt_exp1,1,12139,,18
1306,images/i22.bmp,scrambled,,,0.0,17.0,17.0,51.0,,,,,,,6.0,3.335,,,,,,,2016_Oct_03_1406,59.8820149965,Gestalt_exp1,1,12139,,22
1307,images/INVk21.bmp,inverted,,,0.0,18.0,18.0,73.0,,,,,,,3.0,2.151,,,,,,,2016_Oct_03_1406,59.8820149965,Gestalt_exp1,1,12139,,21
1308,images/k03.bmp,gestalt,,,0.0,19.0,19.0,2.0,,,,,,,6.0,1.735,,,,,,,2016_Oct_03_1406,59.8820149965,Gestalt_exp1,1,12139,,03
1309,images/i03.bmp,scrambled,,,0.0,20.0,20.0,32.0,,,,,,,3.0,1.685,,,,,,,2016_Oct_03_1406,59.8820149965,Gestalt_exp1,1,12139,,03
1310,images/INVk27.bmp,inverted,,,0.0,21.0,21.0,79.0,,,,,,,3.0,1.285,,,,,,,2016_Oct_03_1406,59.8820149965,Gestalt_exp1,1,12139,,27
1311,images/k04.bmp,gestalt,,,0.0,22.0,22.0,3.0,,,,,,,5.0,1.468,,,,,,,2016_Oct_03_1406,59.8820149965,Gestalt_exp1,1,12139,,04
1312,images/k05.bmp,gestalt,,,0.0,23.0,23.0,4.0,,,,,,,6.0,1.552,,,,,,,2016_Oct_03_1406,59.8820149965,Gestalt_exp1,1,12139,,05
1313,images/k07.bmp,gestalt,,,0.0,24.0,24.0,6.0,,,,,,,2.0,1.652,,,,,,,2016_Oct_03_1406,59.8820149965,Gestalt_exp1,1,12139,,07
1314,images/k29.bmp,gestalt,,,0.0,25.0,25.0,28.0,,,,,,,3.0,2.202,,,,,,,2016_Oct_03_1406,59.8820149965,Gestalt_exp1,1,12139,,29
1315,images/i10.bmp,scrambled,,,0.0,26.0,26.0,39.0,,,,,,,3.0,1.419,,,,,,,2016_Oct_03_1406,59.8820149965,Gestalt_exp1,1,12139,,10
1316,images/i04.bmp,scrambled,,,0.0,27.0,27.0,33.0,,,,,,,5.0,1.37,,,,,,,2016_Oct_03_1406,59.8820149965,Gestalt_exp1,1,12139,,04
1317,images/k19.bmp,gestalt,,,0.0,28.0,28.0,18.0,,,,,,,4.0,1.619,,,,,,,2016_Oct_03_1406,59.8820149965,Gestalt_exp1,1,12139,,19
1318,images/INVk04.bmp,inverted,,,0.0,29.0,29.0,62.0,,,,,,,6.0,2.152,,,,,,,2016_Oct_03_1406,59.8820149965,Gestalt_exp1,1,12139,,04
1319,images/k15.bmp,gestalt,,,0.0,30.0,30.0,14.0,,,,,,,3.0,1.702,,,,,,,2016_Oct_03_1406,59.8820149965,Gestalt_exp1,1,12139,,15
1320,images/i24.bmp,scrambled,,,0.0,31.0,31.0,53.0,,,,,,,2.0,1.27,,,,,,,2016_Oct_03_1406,59.8820149965,Gestalt_exp1,1,12139,,24
1321,images/INVk25.bmp,inverted,,,0.0,32.0,32.0,77.0,,,,,,,7.0,1.802,,,,,,,2016_Oct_03_1406,59.8820149965,Gestalt_exp1,1,12139,,25
1322,images/i12.bmp,scrambled,,,0.0,33.0,33.0,41.0,,,,,,,2.0,1.419,,,,,,,2016_Oct_03_1406,59.8820149965,Gestalt_exp1,1,12139,,12
1323,images/i15.bmp,scrambled,,,0.0,34.0,34.0,44.0,,,,,,,2.0,1.302,,,,,,,2016_Oct_03_1406,59.8820149965,Gestalt_exp1,1,12139,,15
1324,images/i16.bmp,scrambled,,,0.0,35.0,35.0,45.0,,,,,,,3.0,1.218,,,,,,,2016_Oct_03_1406,59.8820149965,Gestalt_exp1,1,12139,,16
1325,images/INVk15.bmp,inverted,,,0.0,36.0,36.0,69.0,,,,,,,4.0,1.852,,,,,,,2016_Oct_03_1406,59.8820149965,Gestalt_exp1,1,12139,,15
1326,images/i09.bmp,scrambled,,,0.0,37.0,37.0,38.0,,,,,,,3.0,1.235,,,,,,,2016_Oct_03_1406,59.8820149965,Gestalt_exp1,1,12139,,09
1327,images/INVk10.bmp,inverted,,,0.0,38.0,38.0,66.0,,,,,,,3.0,1.434,,,,,,,2016_Oct_03_1406,59.8820149965,Gestalt_exp1,1,12139,,10
1328,images/INVk30.bmp,inverted,,,0.0,39.0,39.0,82.0,,,,,,,6.0,1.485,,,,,,,2016_Oct_03_1406,59.8820149965,Gestalt_exp1,1,12139,,30
1329,images/INVk24.bmp,inverted,,,0.0,40.0,40.0,76.0,,,,,,,2.0,1.235,,,,,,,2016_Oct_03_1406,59.8820149965,Gestalt_exp1,1,12139,,24
1330,images/k25.bmp,gestalt,,,0.0,41.0,41.0,24.0,,,,,,,5.0,2.002,,,,,,,2016_Oct_03_1406,59.8820149965,Gestalt_exp1,1,12139,,25
1331,images/INVk26.bmp,inverted,,,0.0,42.0,42.0,78.0,,,,,,,7.0,1.602,,,,,,,2016_Oct_03_1406,59.8820149965,Gestalt_exp1,1,12139,,26
1332,images/INVk19.bmp,inverted,,,0.0,43.0,43.0,72.0,,,,,,,3.0,1.435,,,,,,,2016_Oct_03_1406,59.8820149965,Gestalt_exp1,1,12139,,19
1333,images/INVk03.bmp,inverted,,,0.0,44.0,44.0,61.0,,,,,,,7.0,1.568,,,,,,,2016_Oct_03_1406,59.8820149965,Gestalt_exp1,1,12139,,03
1334,images/k27.bmp,gestalt,,,0.0,45.0,45.0,26.0,,,,,,,3.0,1.702,,,,,,,2016_Oct_03_1406,59.8820149965,Gestalt_exp1,1,12139,,27
1335,images/k20.bmp,gestalt,,,0.0,46.0,46.0,19.0,,,,,,,3.0,1.435,,,,,,,2016_Oct_03_1406,59.8820149965,Gestalt_exp1,1,12139,,20
1336,images/k30.bmp,gestalt,,,0.0,47.0,47.0,29.0,,,,,,,7.0,1.352,,,,,,,2016_Oct_03_1406,59.8820149965,Gestalt_exp1,1,12139,,30
1337,images/i06.bmp,scrambled,,,0.0,48.0,48.0,35.0,,,,,,,6.0,1.585,,,,,,,2016_Oct_03_1406,59.8820149965,Gestalt_exp1,1,12139,,06
1338,images/INVk22.bmp,inverted,,,0.0,49.0,49.0,74.0,,,,,,,2.0,1.135,,,,,,,2016_Oct_03_1406,59.8820149965,Gestalt_exp1,1,12139,,22
1339,images/i01.bmp,scrambled,,,0.0,50.0,50.0,30.0,,,,,,,2.0,1.419,,,,,,,2016_Oct_03_1406,59.8820149965,Gestalt_exp1,1,12139,,01
1340,images/i23.bmp,scrambled,,,0.0,51.0,51.0,52.0,,,,,,,3.0,1.335,,,,,,,2016_Oct_03_1406,59.8820149965,Gestalt_exp1,1,12139,,23
1341,images/INVk01.bmp,inverted,,,0.0,52.0,52.0,60.0,,,,,,,6.0,1.868,,,,,,,2016_Oct_03_1406,59.8820149965,Gestalt_exp1,1,12139,,01
1342,images/INVk28.bmp,inverted,,,0.0,53.0,53.0,80.0,,,,,,,5.0,2.452,,,,,,,2016_Oct_03_1406,59.8820149965,Gestalt_exp1,1,12139,,28
1343,images/k11.bmp,gestalt,,,0.0,54.0,54.0,10.0,,,,,,,1.0,2.018,,,,,,,2016_Oct_03_1406,59.8820149965,Gestalt_exp1,1,12139,,11
1344,images/k26.bmp,gestalt,,,0.0,55.0,55.0,25.0,,,,,,,7.0,1.685,,,,,,,2016_Oct_03_1406,59.8820149965,Gestalt_exp1,1,12139,,26
1345,images/i26.bmp,scrambled,,,0.0,56.0,56.0,55.0,,,,,,,2.0,1.202,,,,,,,2016_Oct_03_1406,59.8820149965,Gestalt_exp1,1,12139,,26
1346,images/i25.bmp,scrambled,,,0.0,57.0,57.0,54.0,,,,,,,2.0,1.169,,,,,,,2016_Oct_03_1406,59.8820149965,Gestalt_exp1,1,12139,,25
1347,images/INVk12.bmp,inverted,,,0.0,58.0,58.0,67.0,,,,,,,6.0,1.636,,,,,,,2016_Oct_03_1406,59.8820149965,Gestalt_exp1,1,12139,,12
1348,images/i19.bmp,scrambled,,,0.0,59.0,59.0,48.0,,,,,,,2.0,1.585,,,,,,,2016_Oct_03_1406,59.8820149965,Gestalt_exp1,1,12139,,19
1349,images/k13.bmp,gestalt,,,0.0,60.0,60.0,12.0,,,,,,,8.0,1.802,,,,,,,2016_Oct_03_1406,59.8820149965,Gestalt_exp1,1,12139,,13
1350,images/i27.bmp,scrambled,,,0.0,61.0,61.0,56.0,,,,,,,1.0,1.385,,,,,,,2016_Oct_03_1406,59.8820149965,Gestalt_exp1,1,12139,,27
1351,images/k02.bmp,gestalt,,,0.0,62.0,62.0,1.0,,,,,,,4.0,1.653,,,,,,,2016_Oct_03_1406,59.8820149965,Gestalt_exp1,1,12139,,02
1352,images/i30.bmp,scrambled,,,0.0,63.0,63.0,59.0,,,,,,,2.0,1.27,,,,,,,2016_Oct_03_1406,59.8820149965,Gestalt_exp1,1,12139,,30
1353,images/k14.bmp,gestalt,,,0.0,64.0,64.0,13.0,,,,,,,8.0,2.052,,,,,,,2016_Oct_03_1406,59.8820149965,Gestalt_exp1,1,12139,,14
1354,images/i28.bmp,scrambled,,,0.0,65.0,65.0,57.0,,,,,,,2.0,1.319,,,,,,,2016_Oct_03_1406,59.8820149965,Gestalt_exp1,1,12139,,28
1355,images/INVk16.bmp,inverted,,,0.0,66.0,66.0,70.0,,,,,,,2.0,1.436,,,,,,,2016_Oct_03_1406,59.8820149965,Gestalt_exp1,1,12139,,16
1356,images/k12.bmp,gestalt,,,0.0,67.0,67.0,11.0,,,,,,,5.0,1.435,,,,,,,2016_Oct_03_1406,59.8820149965,Gestalt_exp1,1,12139,,12
1357,images/k06.bmp,gestalt,,,0.0,68.0,68.0,5.0,,,,,,,8.0,1.868,,,,,,,2016_Oct_03_1406,59.8820149965,Gestalt_exp1,1,12139,,06
1358,images/i20.bmp,scrambled,,,0.0,69.0,69.0,49.0,,,,,,,4.0,1.218,,,,,,,2016_Oct_03_1406,59.8820149965,Gestalt_exp1,1,12139,,20
1359,images/i05.bmp,scrambled,,,0.0,70.0,70.0,34.0,,,,,,,1.0,1.502,,,,,,,2016_Oct_03_1406,59.8820149965,Gestalt_exp1,1,12139,,05
1360,images/INVk09.bmp,inverted,,,0.0,71.0,71.0,65.0,,,,,,,7.0,1.819,,,,,,,2016_Oct_03_1406,59.8820149965,Gestalt_exp1,1,12139,,09
1361,images/i02.bmp,scrambled,,,0.0,72.0,72.0,31.0,,,,,,,1.0,1.102,,,,,,,2016_Oct_03_1406,59.8820149965,Gestalt_exp1,1,12139,,02
1362,images/i14.bmp,scrambled,,,0.0,73.0,73.0,43.0,,,,,,,6.0,1.352,,,,,,,2016_Oct_03_1406,59.8820149965,Gestalt_exp1,1,12139,,14
1363,images/k28.bmp,gestalt,,,0.0,74.0,74.0,27.0,,,,,,,2.0,1.085,,,,,,,2016_Oct_03_1406,59.8820149965,Gestalt_exp1,1,12139,,28
1364,images/k18.bmp,gestalt,,,0.0,75.0,75.0,17.0,,,,,,,5.0,1.185,,,,,,,2016_Oct_03_1406,59.8820149965,Gestalt_exp1,1,12139,,18
1365,images/k10.bmp,gestalt,,,0.0,76.0,76.0,9.0,,,,,,,1.0,1.685,,,,,,,2016_Oct_03_1406,59.8820149965,Gestalt_exp1,1,12139,,10
1366,images/INVk23.bmp,inverted,,,0.0,77.0,77.0,75.0,,,,,,,2.0,1.018,,,,,,,2016_Oct_03_1406,59.8820149965,Gestalt_exp1,1,12139,,23
1367,images/INVk29.bmp,inverted,,,0.0,78.0,78.0,81.0,,,,,,,2.0,1.219,,,,,,,2016_Oct_03_1406,59.8820149965,Gestalt_exp1,1,12139,,29
1368,images/k08.bmp,gestalt,,,0.0,79.0,79.0,7.0,,,,,,,8.0,1.502,,,,,,,2016_Oct_03_1406,59.8820149965,Gestalt_exp1,1,12139,,08
1369,images/k16.bmp,gestalt,,,0.0,80.0,80.0,15.0,,,,,,,1.0,2.852,,,,,,,2016_Oct_03_1406,59.8820149965,Gestalt_exp1,1,12139,,16
1370,images/i08.bmp,scrambled,,,0.0,81.0,81.0,37.0,,,,,,,2.0,1.552,,,,,,,2016_Oct_03_1406,59.8820149965,Gestalt_exp1,1,12139,,08
1371,images/k23.bmp,gestalt,,,0.0,82.0,82.0,22.0,,,,,,,1.0,1.018,,,,,,,2016_Oct_03_1406,59.8820149965,Gestalt_exp1,1,12139,,23
1450,images/k02.bmp,gestalt,,,0.0,0.0,0.0,1.0,,,,,,,2.0,12.268,,,,,,,2016_Aug_24_1710,59.9186285714,Gestalt_exp1,1,13105,,02
1451,images/k22.bmp,gestalt,,,0.0,1.0,1.0,21.0,,,,,,,2.0,2.568,,,,,,,2016_Aug_24_1710,59.9186285714,Gestalt_exp1,1,13105,,22
1452,images/INVk21.bmp,inverted,,,0.0,2.0,2.0,73.0,,,,,,,2.0,1.818,,,,,,,2016_Aug_24_1710,59.9186285714,Gestalt_exp1,1,13105,,21
1453,images/INVk26.bmp,inverted,,,0.0,3.0,3.0,78.0,,,,,,,3.0,2.102,,,,,,,2016_Aug_24_1710,59.9186285714,Gestalt_exp1,1,13105,,26
1454,images/k29.bmp,gestalt,,,0.0,4.0,4.0,28.0,,,,,,,4.0,2.919,,,,,,,2016_Aug_24_1710,59.9186285714,Gestalt_exp1,1,13105,,29
1455,images/k13.bmp,gestalt,,,0.0,5.0,5.0,12.0,,,,,,,4.0,2.369,,,,,,,2016_Aug_24_1710,59.9186285714,Gestalt_exp1,1,13105,,13
1456,images/k21.bmp,gestalt,,,0.0,6.0,6.0,20.0,,,,,,,3.0,1.935,,,,,,,2016_Aug_24_1710,59.9186285714,Gestalt_exp1,1,13105,,21
1457,images/k24.bmp,gestalt,,,0.0,7.0,7.0,23.0,,,,,,,5.0,2.402,,,,,,,2016_Aug_24_1710,59.9186285714,Gestalt_exp1,1,13105,,24
1458,images/i28.bmp,scrambled,,,0.0,8.0,8.0,57.0,,,,,,,4.0,1.752,,,,,,,2016_Aug_24_1710,59.9186285714,Gestalt_exp1,1,13105,,28
1459,images/i06.bmp,scrambled,,,0.0,9.0,9.0,35.0,,,,,,,3.0,2.186,,,,,,,2016_Aug_24_1710,59.9186285714,Gestalt_exp1,1,13105,,06
1460,images/INVk09.bmp,inverted,,,0.0,10.0,10.0,65.0,,,,,,,2.0,1.669,,,,,,,2016_Aug_24_1710,59.9186285714,Gestalt_exp1,1,13105,,09
1461,images/INVk12.bmp,inverted,,,0.0,11.0,11.0,67.0,,,,,,,2.0,2.852,,,,,,,2016_Aug_24_1710,59.9186285714,Gestalt_exp1,1,13105,,12
1462,images/INVk30.bmp,inverted,,,0.0,12.0,12.0,82.0,,,,,,,2.0,3.235,,,,,,,2016_Aug_24_1710,59.9186285714,Gestalt_exp1,1,13105,,30
1463,images/k08.bmp,gestalt,,,0.0,13.0,13.0,7.0,,,,,,,2.0,2.919,,,,,,,2016_Aug_24_1710,59.9186285714,Gestalt_exp1,1,13105,,08
1464,images/i27.bmp,scrambled,,,0.0,14.0,14.0,56.0,,,,,,,6.0,2.552,,,,,,,2016_Aug_24_1710,59.9186285714,Gestalt_exp1,1,13105,,27
1465,images/k17.bmp,gestalt,,,0.0,15.0,15.0,16.0,,,,,,,7.0,3.102,,,,,,,2016_Aug_24_1710,59.9186285714,Gestalt_exp1,1,13105,,17
1466,images/i10.bmp,scrambled,,,0.0,16.0,16.0,39.0,,,,,,,5.0,1.868,,,,,,,2016_Aug_24_1710,59.9186285714,Gestalt_exp1,1,13105,,10
1467,images/i05.bmp,scrambled,,,0.0,17.0,17.0,34.0,,,,,,,4.0,1.819,,,,,,,2016_Aug_24_1710,59.9186285714,Gestalt_exp1,1,13105,,05
1468,images/INVk05.bmp,inverted,,,0.0,18.0,18.0,63.0,,,,,,,4.0,2.135,,,,,,,2016_Aug_24_1710,59.9186285714,Gestalt_exp1,1,13105,,05
1469,images/k14.bmp,gestalt,,,0.0,19.0,19.0,13.0,,,,,,,4.0,1.719,,,,,,,2016_Aug_24_1710,59.9186285714,Gestalt_exp1,1,13105,,14
1470,images/INVk24.bmp,inverted,,,0.0,20.0,20.0,76.0,,,,,,,7.0,2.302,,,,,,,2016_Aug_24_1710,59.9186285714,Gestalt_exp1,1,13105,,24
1471,images/k15.bmp,gestalt,,,0.0,21.0,21.0,14.0,,,,,,,4.0,1.802,,,,,,,2016_Aug_24_1710,59.9186285714,Gestalt_exp1,1,13105,,15
1472,images/i04.bmp,scrambled,,,0.0,22.0,22.0,33.0,,,,,,,5.0,1.635,,,,,,,2016_Aug_24_1710,59.9186285714,Gestalt_exp1,1,13105,,04
1473,images/INVk18.bmp,inverted,,,0.0,23.0,23.0,71.0,,,,,,,5.0,1.336,,,,,,,2016_Aug_24_1710,59.9186285714,Gestalt_exp1,1,13105,,18
1474,images/k28.bmp,gestalt,,,0.0,24.0,24.0,27.0,,,,,,,6.0,1.719,,,,,,,2016_Aug_24_1710,59.9186285714,Gestalt_exp1,1,13105,,28
1475,images/k04.bmp,gestalt,,,0.0,25.0,25.0,3.0,,,,,,,5.0,1.702,,,,,,,2016_Aug_24_1710,59.9186285714,Gestalt_exp1,1,13105,,04
1476,images/i01.bmp,scrambled,,,0.0,26.0,26.0,30.0,,,,,,,7.0,1.751,,,,,,,2016_Aug_24_1710,59.9186285714,Gestalt_exp1,1,13105,,01
1477,images/i09.bmp,scrambled,,,0.0,27.0,27.0,38.0,,,,,,,6.0,1.285,,,,,,,2016_Aug_24_1710,59.9186285714,Gestalt_exp1,1,13105,,09
1478,images/INVk01.bmp,inverted,,,0.0,28.0,28.0,60.0,,,,,,,5.0,1.418,,,,,,,2016_Aug_24_1710,59.9186285714,Gestalt_exp1,1,13105,,01
1479,images/INVk10.bmp,inverted,,,0.0,29.0,29.0,66.0,,,,,,,6.0,1.669,,,,,,,2016_Aug_24_1710,59.9186285714,Gestalt_exp1,1,13105,,10
1480,images/k16.bmp,gestalt,,,0.0,30.0,30.0,15.0,,,,,,,7.0,1.869,,,,,,,2016_Aug_24_1710,59.9186285714,Gestalt_exp1,1,13105,,16
1481,images/k27.bmp,gestalt,,,0.0,31.0,31.0,26.0,,,,,,,7.0,2.053,,,,,,,2016_Aug_24_1710,59.9186285714,Gestalt_exp1,1,13105,,27
1482,images/i02.bmp,scrambled,,,0.0,32.0,32.0,31.0,,,,,,,6.0,1.835,,,,,,,2016_Aug_24_1710,59.9186285714,Gestalt_exp1,1,13105,,02
1483,images/INVk03.bmp,inverted,,,0.0,33.0,33.0,61.0,,,,,,,6.0,1.618,,,,,,,2016_Aug_24_1710,59.9186285714,Gestalt_exp1,1,13105,,03
1484,images/i22.bmp,scrambled,,,0.0,34.0,34.0,51.0,,,,,,,7.0,1.719,,,,,,,2016_Aug_24_1710,59.9186285714,Gestalt_exp1,1,13105,,22
1485,images/i23.bmp,scrambled,,,0.0,35.0,35.0,52.0,,,,,,,7.0,1.668,,,,,,,2016_Aug_24_1710,59.9186285714,Gestalt_exp1,1,13105,,23
