,Unnamed: 0,images,condition,imgB,imgA,trials.thisRepN,trials.thisTrialN,trials.thisN,trials.thisIndex,numLoop.thisRepN,numLoop.thisTrialN,numLoop.thisN,numLoop.thisIndex,response.keys,response.rt,rating,rt,key_resp_2.keys,key_resp_2.rt,numResp.keys,numResp.corr,numResp.Alocation,numResp.rt,date,frameRate,expName,session,participant,Unnamed: 27,img_x,density_x,hull_x,density_y,hull_y,img_y,density,hull,img
0,1,images/k20.bmp,gestalt,,,0.0,0.0,0.0,19.0,,,,,,,3.0,8.569,,,,,,,2016_Oct_17_1007,59.9207685989,Gestalt_exp1,1,5635,,20,0.0390237046126,0.291833333333,0.0390237046126,0.291833333333,20,0.0390237046126,0.291833333333,20
1,221,images/k20.bmp,gestalt,,,0.0,59.0,59.0,19.0,,,,,,,5.0,1.636,,,,,,,2016_Oct_24_1403,59.9081874302,Gestalt_exp1,1,7333,,20,0.0390237046126,0.291833333333,0.0390237046126,0.291833333333,20,0.0390237046126,0.291833333333,20
2,401,images/k20.bmp,gestalt,,,0.0,78.0,78.0,19.0,,,,,,,2.0,1.152,,,,,,,2016_Oct_17_1508,59.7289465027,Gestalt_exp1,1,7576,,20,0.0390237046126,0.291833333333,0.0390237046126,0.291833333333,20,0.0390237046126,0.291833333333,20
3,562,images/k20.bmp,gestalt,,,0.0,78.0,78.0,19.0,,,,,,,5.0,1.402,,,,,,,2016_May_03_1203,60.0146520147,Gestalt_exp1,1,9010,,20,0.0390237046126,0.291833333333,0.0390237046126,0.291833333333,20,0.0390237046126,0.291833333333,20
4,720,images/k20.bmp,gestalt,,,0.0,75.0,75.0,19.0,,,,,,,5.0,1.869,,,,,,,2016_Sep_19_1511,59.8884276929,Gestalt_exp1,1,11485,,20,0.0390237046126,0.291833333333,0.0390237046126,0.291833333333,20,0.0390237046126,0.291833333333,20
5,831,images/k20.bmp,gestalt,,,0.0,25.0,25.0,19.0,,,,,,,4.0,2.419,,,,,,,2016_Apr_15_1205,59.8039758064,Gestalt_exp1,1,11707,,20,0.0390237046126,0.291833333333,0.0390237046126,0.291833333333,20,0.0390237046126,0.291833333333,20
6,1044,images/k20.bmp,gestalt,,,0.0,77.0,77.0,19.0,,,,,,,5.0,2.152,,,,,,,2016_Apr_21_1606,59.9297583837,Gestalt_exp1,1,11755,,20,0.0390237046126,0.291833333333,0.0390237046126,0.291833333333,20,0.0390237046126,0.291833333333,20
7,1159,images/k20.bmp,gestalt,,,0.0,31.0,31.0,19.0,,,,,,,2.0,4.102,,,,,,,2016_Sep_26_1705,59.9161463311,Gestalt_exp1,1,11758,,20,0.0390237046126,0.291833333333,0.0390237046126,0.291833333333,20,0.0390237046126,0.291833333333,20
8,1335,images/k20.bmp,gestalt,,,0.0,46.0,46.0,19.0,,,,,,,3.0,1.435,,,,,,,2016_Oct_03_1406,59.8820149965,Gestalt_exp1,1,12139,,20,0.0390237046126,0.291833333333,0.0390237046126,0.291833333333,20,0.0390237046126,0.291833333333,20
9,1486,images/k20.bmp,gestalt,,,0.0,36.0,36.0,19.0,,,,,,,5.0,1.618,,,,,,,2016_Aug_24_1710,59.9186285714,Gestalt_exp1,1,13105,,20,0.0390237046126,0.291833333333,0.0390237046126,0.291833333333,20,0.0390237046126,0.291833333333,20
10,1642,images/k20.bmp,gestalt,,,0.0,31.0,31.0,19.0,,,,,,,6.0,1.452,,,,,,,2016_Apr_18_1709,59.9075028923,Gestalt_exp1,1,13201,,20,0.0390237046126,0.291833333333,0.0390237046126,0.291833333333,20,0.0390237046126,0.291833333333,20
11,1803,images/k20.bmp,gestalt,,,0.0,31.0,31.0,19.0,,,,,,,6.0,3.068,,,,,,,2016_Oct_17_1105,59.9175158176,Gestalt_exp1,1,13831,,20,0.0390237046126,0.291833333333,0.0390237046126,0.291833333333,20,0.0390237046126,0.291833333333,20
12,1975,images/k20.bmp,gestalt,,,0.0,42.0,42.0,19.0,,,,,,,3.0,1.918,,,,,,,2016_Oct_10_1504,59.8748344068,Gestalt_exp1,1,14596,,20,0.0390237046126,0.291833333333,0.0390237046126,0.291833333333,20,0.0390237046126,0.291833333333,20
13,2158,images/k20.bmp,gestalt,,,0.0,64.0,64.0,19.0,,,,,,,6.0,1.568,,,,,,,2016_Sep_26_1208,59.9193133636,Gestalt_exp1,1,15643,,20,0.0390237046126,0.291833333333,0.0390237046126,0.291833333333,20,0.0390237046126,0.291833333333,20
14,2278,images/k20.bmp,gestalt,,,0.0,23.0,23.0,19.0,,,,,,,5.0,1.519,,,,,,,2016_May_03_1106,59.9186285714,Gestalt_exp1,1,15928,,20,0.0390237046126,0.291833333333,0.0390237046126,0.291833333333,20,0.0390237046126,0.291833333333,20
15,2440,images/k20.bmp,gestalt,,,0.0,24.0,24.0,19.0,,,,,,,4.0,1.935,,,,,,,2016_Apr_15_1406,60.0222097563,Gestalt_exp1,1,16522,,20,0.0390237046126,0.291833333333,0.0390237046126,0.291833333333,20,0.0390237046126,0.291833333333,20
16,2644,images/k20.bmp,gestalt,,,0.0,67.0,67.0,19.0,,,,,,,8.0,2.185,,,,,,,2016_Apr_15_1507,59.7114299096,Gestalt_exp1,1,16891,,20,0.0390237046126,0.291833333333,0.0390237046126,0.291833333333,20,0.0390237046126,0.291833333333,20
17,2806,images/k20.bmp,gestalt,,,0.0,68.0,68.0,19.0,,,,,,,4.0,1.537,,,,,,,2016_May_02_1508,59.6907803356,Gestalt_exp1,1,17959,,20,0.0390237046126,0.291833333333,0.0390237046126,0.291833333333,20,0.0390237046126,0.291833333333,20
18,2923,images/k20.bmp,gestalt,,,0.0,24.0,24.0,19.0,,,,,,,2.0,2.402,,,,,,,2016_Apr_25_1505,59.9243641891,Gestalt_exp1,1,18019,,20,0.0390237046126,0.291833333333,0.0390237046126,0.291833333333,20,0.0390237046126,0.291833333333,20
19,3079,images/k20.bmp,gestalt,,,0.0,19.0,19.0,19.0,,,,,,,4.0,1.569,,,,,,,2016_Apr_21_1005,59.7296269661,Gestalt_exp1,1,18445,,20,0.0390237046126,0.291833333333,0.0390237046126,0.291833333333,20,0.0390237046126,0.291833333333,20
20,3235,images/k20.bmp,gestalt,,,0.0,14.0,14.0,19.0,,,,,,,4.0,3.418,,,,,,,2016_Aug_24_1628,59.9268471105,Gestalt_exp1,1,18460,,20,0.0390237046126,0.291833333333,0.0390237046126,0.291833333333,20,0.0390237046126,0.291833333333,20
21,3383,images/k20.bmp,gestalt,,,0.0,1.0,1.0,19.0,,,,,,,5.0,3.735,,,,,,,2016_Apr_18_1405,59.9667733237,Gestalt_exp1,1,18913,,20,0.0390237046126,0.291833333333,0.0390237046126,0.291833333333,20,0.0390237046126,0.291833333333,20
22,3560,images/k20.bmp,gestalt,,,0.0,17.0,17.0,19.0,,,,,,,2.0,1.452,,,,,,,2016_Apr_21_1208,60.2507825283,Gestalt_exp1,1,19201,,20,0.0390237046126,0.291833333333,0.0390237046126,0.291833333333,20,0.0390237046126,0.291833333333,20
23,3746,images/k20.bmp,gestalt,,,0.0,42.0,42.0,19.0,,,,,,,4.0,3.103,,,,,,,2016_Apr_21_1103,59.9290733528,Gestalt_exp1,1,19873,,20,0.0390237046126,0.291833333333,0.0390237046126,0.291833333333,20,0.0390237046126,0.291833333333,20
24,3872,images/k20.bmp,gestalt,,,0.0,7.0,7.0,19.0,,,,,,,5.0,1.385,,,,,,,2016_Apr_27_1412,59.9222239049,Gestalt_exp1,1,20353,,20,0.0390237046126,0.291833333333,0.0390237046126,0.291833333333,20,0.0390237046126,0.291833333333,20
25,4050,images/k20.bmp,gestalt,,,0.0,24.0,24.0,19.0,,,,,,,4.0,1.151,,,,,,,2016_Apr_25_1609,59.9377230175,Gestalt_exp1,1,20395,,20,0.0390237046126,0.291833333333,0.0390237046126,0.291833333333,20,0.0390237046126,0.291833333333,20
26,4208,images/k20.bmp,gestalt,,,0.0,21.0,21.0,19.0,,,,,,,5.0,1.886,,,,,,,2016_May_02_1605,59.9351535495,Gestalt_exp1,1,20404,,20,0.0390237046126,0.291833333333,0.0390237046126,0.291833333333,20,0.0390237046126,0.291833333333,20
27,4385,images/k20.bmp,gestalt,,,0.0,37.0,37.0,19.0,,,,,,,9.0,1.884,,,,,,,2016_Apr_28_1503,59.9133219629,Gestalt_exp1,1,20467,,20,0.0390237046126,0.291833333333,0.0390237046126,0.291833333333,20,0.0390237046126,0.291833333333,20
28,4558,images/k20.bmp,gestalt,,,0.0,49.0,49.0,19.0,,,,,,,6.0,1.886,,,,,,,2016_Apr_18_1604,59.9477460481,Gestalt_exp1,1,20650,,20,0.0390237046126,0.291833333333,0.0390237046126,0.291833333333,20,0.0390237046126,0.291833333333,20
29,4684,images/k20.bmp,gestalt,,,0.0,14.0,14.0,19.0,,,,,,,2.0,1.368,,,,,,,2016_May_03_1507,59.9243641891,Gestalt_exp1,1,20755,,20,0.0390237046126,0.291833333333,0.0390237046126,0.291833333333,20,0.0390237046126,0.291833333333,20
30,4865,images/k20.bmp,gestalt,,,0.0,34.0,34.0,19.0,,,,,,,4.0,1.167,,,,,,,2016_Apr_28_1404,59.7556663328,Gestalt_exp1,1,20803,,20,0.0390237046126,0.291833333333,0.0390237046126,0.291833333333,20,0.0390237046126,0.291833333333,20
31,5074,images/k20.bmp,gestalt,,,0.0,82.0,82.0,19.0,,,,,,,5.0,1.902,,,,,,,2016_Apr_28_1007,59.9207685989,Gestalt_exp1,1,20959,,20,0.0390237046126,0.291833333333,0.0390237046126,0.291833333333,20,0.0390237046126,0.291833333333,20
32,5180,images/k20.bmp,gestalt,,,0.0,27.0,27.0,19.0,,,,,,,9.0,1.818,,,,,,,2016_Oct_10_1709,59.9226519495,Gestalt_exp1,1,21055,,20,0.0390237046126,0.291833333333,0.0390237046126,0.291833333333,20,0.0390237046126,0.291833333333,20
33,5381,images/k20.bmp,gestalt,,,0.0,67.0,67.0,19.0,,,,,,,6.0,1.619,,,,,,,2016_Apr_21_1508,59.9182861812,Gestalt_exp1,1,21064,,20,0.0390237046126,0.291833333333,0.0390237046126,0.291833333333,20,0.0390237046126,0.291833333333,20
34,5526,images/k20.bmp,gestalt,,,0.0,51.0,51.0,19.0,,,,,,,4.0,1.236,,,,,,,2016_Apr_28_0910,59.91006999,Gestalt_exp1,1,21127,,20,0.0390237046126,0.291833333333,0.0390237046126,0.291833333333,20,0.0390237046126,0.291833333333,20
35,5641,images/k20.bmp,gestalt,,,0.0,5.0,5.0,19.0,,,,,,,6.0,3.186,,,,,,,2016_Oct_03_1706,59.9135787127,Gestalt_exp1,1,21271,,20,0.0390237046126,0.291833333333,0.0390237046126,0.291833333333,20,0.0390237046126,0.291833333333,20
36,5830,images/k20.bmp,gestalt,,,0.0,33.0,33.0,19.0,,,,,,,8.0,2.719,,,,,,,2016_Oct_10_1311,59.9078451593,Gestalt_exp1,1,21322,,20,0.0390237046126,0.291833333333,0.0390237046126,0.291833333333,20,0.0390237046126,0.291833333333,20
37,5972,images/k20.bmp,gestalt,,,0.0,14.0,14.0,19.0,,,,,,,8.0,1.369,,,,,,,2016_Apr_25_1410,59.9193989637,Gestalt_exp1,1,21436,,20,0.0390237046126,0.291833333333,0.0390237046126,0.291833333333,20,0.0390237046126,0.291833333333,20
38,6127,images/k20.bmp,gestalt,,,0.0,8.0,8.0,19.0,,,,,,,3.0,1.619,,,,,,,2016_May_03_1405,59.9272752211,Gestalt_exp1,1,21511,,20,0.0390237046126,0.291833333333,0.0390237046126,0.291833333333,20,0.0390237046126,0.291833333333,20
39,6337,images/k20.bmp,gestalt,,,0.0,57.0,57.0,19.0,,,,,,,6.0,2.368,,,,,,,2016_May_03_0911,59.9214534399,Gestalt_exp1,1,21625,,20,0.0390237046126,0.291833333333,0.0390237046126,0.291833333333,20,0.0390237046126,0.291833333333,20
40,6444,images/k20.bmp,gestalt,,,0.0,3.0,3.0,19.0,,,,,,,5.0,4.852,,,,,,,2016_Apr_15_1104,59.9215390462,Gestalt_exp1,1,21661,,20,0.0390237046126,0.291833333333,0.0390237046126,0.291833333333,20,0.0390237046126,0.291833333333,20
41,6678,images/k20.bmp,gestalt,,,0.0,76.0,76.0,19.0,,,,,,,3.0,0.869,,,,,,,2016_Apr_27_1506,59.7303925059,Gestalt_exp1,1,21700,,20,0.0390237046126,0.291833333333,0.0390237046126,0.291833333333,20,0.0390237046126,0.291833333333,20
42,6813,images/k20.bmp,gestalt,,,0.0,50.0,50.0,19.0,,,,,,,4.0,4.168,,,,,,,2016_Oct_17_1307,59.7253743245,Gestalt_exp1,1,22129,,20,0.0390237046126,0.291833333333,0.0390237046126,0.291833333333,20,0.0390237046126,0.291833333333,20
43,6927,images/k20.bmp,gestalt,,,0.0,3.0,3.0,19.0,,,,,,,5.0,2.002,,,,,,,2016_Oct_10_1606,59.9369521539,Gestalt_exp1,1,22168,,20,0.0390237046126,0.291833333333,0.0390237046126,0.291833333333,20,0.0390237046126,0.291833333333,20
44,7120,images/k20.bmp,gestalt,,,0.0,35.0,35.0,19.0,,,,,,,3.0,3.602,,,,,,,2016_Apr_21_0913,59.9258196698,Gestalt_exp1,1,22246,,20,0.0390237046126,0.291833333333,0.0390237046126,0.291833333333,20,0.0390237046126,0.291833333333,20
45,7284,images/k20.bmp,gestalt,,,0.0,38.0,38.0,19.0,,,,,,,3.0,1.352,,,,,,,2016_Sep_26_1110,59.8731249964,Gestalt_exp1,1,22315,,20,0.0390237046126,0.291833333333,0.0390237046126,0.291833333333,20,0.0390237046126,0.291833333333,20
46,7459,images/k20.bmp,gestalt,,,0.0,52.0,52.0,19.0,,,,,,,6.0,3.336,,,,,,,2016_Sep_26_1604,59.9215390462,Gestalt_exp1,1,22333,,20,0.0390237046126,0.291833333333,0.0390237046126,0.291833333333,20,0.0390237046126,0.291833333333,20
47,7581,images/k20.bmp,gestalt,,,0.0,13.0,13.0,19.0,,,,,,,6.0,2.918,,,,,,,2016_Apr_15_0910,59.9110968907,Gestalt_exp1,1,22339,,20,0.0390237046126,0.291833333333,0.0390237046126,0.291833333333,20,0.0390237046126,0.291833333333,20
48,7736,images/k20.bmp,gestalt,,,0.0,7.0,7.0,19.0,,,,,,,5.0,1.652,,,,,,,2016_May_02_1406,59.9117815107,Gestalt_exp1,1,22567,,20,0.0390237046126,0.291833333333,0.0390237046126,0.291833333333,20,0.0390237046126,0.291833333333,20
49,7954,images/k20.bmp,gestalt,,,0.0,64.0,64.0,19.0,,,,,,,6.0,2.685,,,,,,,2016_Apr_15_1316,59.9229087792,Gestalt_exp1,1,22681,,20,0.0390237046126,0.291833333333,0.0390237046126,0.291833333333,20,0.0390237046126,0.291833333333,20
50,8118,images/k20.bmp,gestalt,,,0.0,67.0,67.0,19.0,,,,,,,4.0,2.285,,,,,,,2016_Apr_18_1505,59.9215390462,Gestalt_exp1,1,22819,,20,0.0390237046126,0.291833333333,0.0390237046126,0.291833333333,20,0.0390237046126,0.291833333333,20
51,8267,images/k20.bmp,gestalt,,,0.0,55.0,55.0,19.0,,,,,,,1.0,1.151,,,,,,,2016_Oct_17_1210,59.9243641891,Gestalt_exp1,1,22987,,20,0.0390237046126,0.291833333333,0.0390237046126,0.291833333333,20,0.0390237046126,0.291833333333,20
52,8447,images/k20.bmp,gestalt,,,0.0,74.0,74.0,19.0,,,,,,,4.0,1.453,,,,,,,2016_Apr_25_1714,59.9520304169,Gestalt_exp1,1,23068,,20,0.0390237046126,0.291833333333,0.0390237046126,0.291833333333,20,0.0390237046126,0.291833333333,20
53,8542,images/k20.bmp,gestalt,,,0.0,8.0,8.0,19.0,,,,,,,7.0,2.219,,,,,,,2016_Apr_28_1203,59.917858199,Gestalt_exp1,1,23086,,20,0.0390237046126,0.291833333333,0.0390237046126,0.291833333333,20,0.0390237046126,0.291833333333,20
54,8701,images/k20.bmp,gestalt,,,0.0,6.0,6.0,19.0,,,,,,,3.0,2.102,,,,,,,2016_May_04_1404,59.9031393311,Gestalt_exp1,1,23125,,20,0.0390237046126,0.291833333333,0.0390237046126,0.291833333333,20,0.0390237046126,0.291833333333,20
55,8920,images/k20.bmp,gestalt,,,0.0,64.0,64.0,19.0,,,,,,,2.0,3.652,,,,,,,2016_May_03_1309,59.9276177141,Gestalt_exp1,1,23143,,20,0.0390237046126,0.291833333333,0.0390237046126,0.291833333333,20,0.0390237046126,0.291833333333,20
56,9035,images/k20.bmp,gestalt,,,0.0,18.0,18.0,19.0,,,,,,,2.0,2.852,,,,,,,2016_Aug_24_1146,59.9168310665,Gestalt_exp1,1,23713,,20,0.0390237046126,0.291833333333,0.0390237046126,0.291833333333,20,0.0390237046126,0.291833333333,20
57,9195,images/k20.bmp,gestalt,,,0.0,17.0,17.0,19.0,,,,,,,2.0,2.72,,,,,,,2016_Oct_03_1507,59.9208542032,Gestalt_exp1,1,23767,,20,0.0390237046126,0.291833333333,0.0390237046126,0.291833333333,20,0.0390237046126,0.291833333333,20
58,9357,images/k20.bmp,gestalt,,,0.0,18.0,18.0,19.0,,,,,,,4.0,2.235,,,,,,,2016_Sep_26_0916,60.0066669242,Gestalt_exp1,1,23800,,20,0.0390237046126,0.291833333333,0.0390237046126,0.291833333333,20,0.0390237046126,0.291833333333,20
59,9571,images/k20.bmp,gestalt,,,0.0,71.0,71.0,19.0,,,,,,,2.0,2.602,,,,,,,2016_Oct_03_1558,59.9240217334,Gestalt_exp1,1,23854,,20,0.0390237046126,0.291833333333,0.0390237046126,0.291833333333,20,0.0390237046126,0.291833333333,20
60,9704,images/k20.bmp,gestalt,,,0.0,43.0,43.0,19.0,,,,,,,2.0,2.67,,,,,,,2016_Sep_19_1307,59.9444903373,Gestalt_exp1,1,23878,,20,0.0390237046126,0.291833333333,0.0390237046126,0.291833333333,20,0.0390237046126,0.291833333333,20
61,9831,images/k20.bmp,gestalt,,,0.0,9.0,9.0,19.0,,,,,,,5.0,1.635,,,,,,,2016_Sep_26_1508,59.9207685989,Gestalt_exp1,1,23926,,20,0.0390237046126,0.291833333333,0.0390237046126,0.291833333333,20,0.0390237046126,0.291833333333,20
62,10041,images/k20.bmp,gestalt,,,0.0,58.0,58.0,19.0,,,,,,,5.0,1.301,,,,,,,2016_Oct_17_1407,59.7424736206,Gestalt_exp1,1,23950,,20,0.0390237046126,0.291833333333,0.0390237046126,0.291833333333,20,0.0390237046126,0.291833333333,20
63,10222,images/k20.bmp,gestalt,,,0.0,78.0,78.0,19.0,,,,,,,5.0,1.17,,,,,,,2016_Oct_10_0910,59.9182861812,Gestalt_exp1,1,23956,,20,0.0390237046126,0.291833333333,0.0390237046126,0.291833333333,20,0.0390237046126,0.291833333333,20
64,10331,images/k20.bmp,gestalt,,,0.0,26.0,26.0,19.0,,,,,,,5.0,1.919,,,,,,,2016_Oct_10_1407,59.8974933131,Gestalt_exp1,1,23962,,20,0.0390237046126,0.291833333333,0.0390237046126,0.291833333333,20,0.0390237046126,0.291833333333,20
65,10543,images/k20.bmp,gestalt,,,0.0,77.0,77.0,19.0,,,,,,,4.0,2.285,,,,,,,2016_Oct_24_1504,59.917858199,Gestalt_exp1,1,23986,,20,0.0390237046126,0.291833333333,0.0390237046126,0.291833333333,20,0.0390237046126,0.291833333333,20
66,10692,images/k20.bmp,gestalt,,,0.0,65.0,65.0,19.0,,,,,,,5.0,3.153,,,,,,,2016_Oct_17_1612,59.928987725,Gestalt_exp1,1,24154,,20,0.0390237046126,0.291833333333,0.0390237046126,0.291833333333,20,0.0390237046126,0.291833333333,20
67,10857,images/k20.bmp,gestalt,,,0.0,69.0,69.0,19.0,,,,,,,5.0,1.002,,,,,,,2016_Oct_17_0910,59.9050215737,Gestalt_exp1,1,24205,,20,0.0390237046126,0.291833333333,0.0390237046126,0.291833333333,20,0.0390237046126,0.291833333333,20
68,11010,images/k20.bmp,gestalt,,,0.0,61.0,61.0,19.0,,,,,,,5.0,2.552,,,,,,,2016_Oct_10_1205,59.7263949033,Gestalt_exp1,1,24208,,20,0.0390237046126,0.291833333333,0.0390237046126,0.291833333333,20,0.0390237046126,0.291833333333,20
69,11115,images/k20.bmp,gestalt,,,0.0,5.0,5.0,19.0,,,,,,,5.0,2.919,,,,,,,2016_Oct_17_1709,59.9092998376,Gestalt_exp1,1,24331,,20,0.0390237046126,0.291833333333,0.0390237046126,0.291833333333,20,0.0390237046126,0.291833333333,20
70,11345,images/k20.bmp,gestalt,,,0.0,74.0,74.0,19.0,,,,,,,2.0,1.885,,,,,,,2016_Oct_24_1105,59.9243641891,Gestalt_exp1,1,24355,,20,0.0390237046126,0.291833333333,0.0390237046126,0.291833333333,20,0.0390237046126,0.291833333333,20
71,11456,images/k20.bmp,gestalt,,,0.0,24.0,24.0,19.0,,,,,,,8.0,1.819,,,,,,,2016_Oct_24_1209,59.9204261842,Gestalt_exp1,1,24394,,20,0.0390237046126,0.291833333333,0.0390237046126,0.291833333333,20,0.0390237046126,0.291833333333,20
72,11654,images/k20.bmp,gestalt,,,0.0,61.0,61.0,19.0,,,,,,,5.0,1.202,,,,,,,2016_Oct_24_1011,59.728181,Gestalt_exp1,1,24679,,20,0.0390237046126,0.291833333333,0.0390237046126,0.291833333333,20,0.0390237046126,0.291833333333,20
73,11776,images/k20.bmp,gestalt,,,0.0,22.0,22.0,19.0,,,,,,,5.0,2.219,,,,,,,2016_Oct_24_0919,59.9024549086,Gestalt_exp1,1,24814,,20,0.0390237046126,0.291833333333,0.0390237046126,0.291833333333,20,0.0390237046126,0.291833333333,20
74,11963,images/k20.bmp,gestalt,,,0.0,48.0,48.0,19.0,,,,,,,4.0,1.585,,,,,,,2016_Oct_24_1605,59.9218814736,Gestalt_exp1,1,25255,,20,0.0390237046126,0.291833333333,0.0390237046126,0.291833333333,20,0.0390237046126,0.291833333333,20
75,12154,images/k20.bmp,gestalt,,,0.0,78.0,78.0,19.0,,,,,,,5.0,2.885,,,,,,,2016_Oct_24_1707,59.9232512222,Gestalt_exp1,1,25273,,20,0.0390237046126,0.291833333333,0.0390237046126,0.291833333333,20,0.0390237046126,0.291833333333,20
76,12273,images/k20.bmp,gestalt,,,0.0,36.0,36.0,19.0,,,,,,,3.0,2.569,,,,,,,2016_Oct_24_1308,59.9179437949,Gestalt_exp1,1,25306,,20,0.0390237046126,0.291833333333,0.0390237046126,0.291833333333,20,0.0390237046126,0.291833333333,20
77,2,images/INVk14.bmp,inverted,,,0.0,1.0,1.0,68.0,,,,,,,5.0,10.069,,,,,,,2016_Oct_17_1007,59.9207685989,Gestalt_exp1,1,5635,,14,0.166420222686,0.150577777778,0.166420222686,0.150577777778,16,0.166420222686,0.150577777778,14
78,164,images/INVk14.bmp,inverted,,,0.0,2.0,2.0,68.0,,,,,,,5.0,2.902,,,,,,,2016_Oct_24_1403,59.9081874302,Gestalt_exp1,1,7333,,14,0.166420222686,0.150577777778,0.166420222686,0.150577777778,16,0.166420222686,0.150577777778,14
79,376,images/INVk14.bmp,inverted,,,0.0,53.0,53.0,68.0,,,,,,,2.0,1.402,,,,,,,2016_Oct_17_1508,59.7289465027,Gestalt_exp1,1,7576,,14,0.166420222686,0.150577777778,0.166420222686,0.150577777778,16,0.166420222686,0.150577777778,14
80,530,images/INVk14.bmp,inverted,,,0.0,46.0,46.0,68.0,,,,,,,7.0,2.451,,,,,,,2016_May_03_1203,60.0146520147,Gestalt_exp1,1,9010,,14,0.166420222686,0.150577777778,0.166420222686,0.150577777778,16,0.166420222686,0.150577777778,14
81,678,images/INVk14.bmp,inverted,,,0.0,33.0,33.0,68.0,,,,,,,6.0,1.719,,,,,,,2016_Sep_19_1511,59.8884276929,Gestalt_exp1,1,11485,,14,0.166420222686,0.150577777778,0.166420222686,0.150577777778,16,0.166420222686,0.150577777778,14
82,834,images/INVk14.bmp,inverted,,,0.0,28.0,28.0,68.0,,,,,,,7.0,2.952,,,,,,,2016_Apr_15_1205,59.8039758064,Gestalt_exp1,1,11707,,14,0.166420222686,0.150577777778,0.166420222686,0.150577777778,16,0.166420222686,0.150577777778,14
83,981,images/INVk14.bmp,inverted,,,0.0,14.0,14.0,68.0,,,,,,,7.0,3.036,,,,,,,2016_Apr_21_1606,59.9297583837,Gestalt_exp1,1,11755,,14,0.166420222686,0.150577777778,0.166420222686,0.150577777778,16,0.166420222686,0.150577777778,14
84,1139,images/INVk14.bmp,inverted,,,0.0,11.0,11.0,68.0,,,,,,,5.0,3.802,,,,,,,2016_Sep_26_1705,59.9161463311,Gestalt_exp1,1,11758,,14,0.166420222686,0.150577777778,0.166420222686,0.150577777778,16,0.166420222686,0.150577777778,14
85,1296,images/INVk14.bmp,inverted,,,0.0,7.0,7.0,68.0,,,,,,,8.0,2.285,,,,,,,2016_Oct_03_1406,59.8820149965,Gestalt_exp1,1,12139,,14,0.166420222686,0.150577777778,0.166420222686,0.150577777778,16,0.166420222686,0.150577777778,14
86,1498,images/INVk14.bmp,inverted,,,0.0,48.0,48.0,68.0,,,,,,,6.0,2.468,,,,,,,2016_Aug_24_1710,59.9186285714,Gestalt_exp1,1,13105,,14,0.166420222686,0.150577777778,0.166420222686,0.150577777778,16,0.166420222686,0.150577777778,14
87,1629,images/INVk14.bmp,inverted,,,0.0,18.0,18.0,68.0,,,,,,,6.0,1.819,,,,,,,2016_Apr_18_1709,59.9075028923,Gestalt_exp1,1,13201,,14,0.166420222686,0.150577777778,0.166420222686,0.150577777778,16,0.166420222686,0.150577777778,14
88,1835,images/INVk14.bmp,inverted,,,0.0,63.0,63.0,68.0,,,,,,,9.0,3.385,,,,,,,2016_Oct_17_1105,59.9175158176,Gestalt_exp1,1,13831,,14,0.166420222686,0.150577777778,0.166420222686,0.150577777778,16,0.166420222686,0.150577777778,14
89,1935,images/INVk14.bmp,inverted,,,0.0,2.0,2.0,68.0,,,,,,,4.0,3.219,,,,,,,2016_Oct_10_1504,59.8748344068,Gestalt_exp1,1,14596,,14,0.166420222686,0.150577777778,0.166420222686,0.150577777778,16,0.166420222686,0.150577777778,14
90,2105,images/INVk14.bmp,inverted,,,0.0,11.0,11.0,68.0,,,,,,,4.0,2.952,,,,,,,2016_Sep_26_1208,59.9193133636,Gestalt_exp1,1,15643,,14,0.166420222686,0.150577777778,0.166420222686,0.150577777778,16,0.166420222686,0.150577777778,14
91,2320,images/INVk14.bmp,inverted,,,0.0,65.0,65.0,68.0,,,,,,,6.0,1.218,,,,,,,2016_May_03_1106,59.9186285714,Gestalt_exp1,1,15928,,14,0.166420222686,0.150577777778,0.166420222686,0.150577777778,16,0.166420222686,0.150577777778,14
92,2448,images/INVk14.bmp,inverted,,,0.0,32.0,32.0,68.0,,,,,,,3.0,1.818,,,,,,,2016_Apr_15_1406,60.0222097563,Gestalt_exp1,1,16522,,14,0.166420222686,0.150577777778,0.166420222686,0.150577777778,16,0.166420222686,0.150577777778,14
93,2614,images/INVk14.bmp,inverted,,,0.0,37.0,37.0,68.0,,,,,,,4.0,2.235,,,,,,,2016_Apr_15_1507,59.7114299096,Gestalt_exp1,1,16891,,14,0.166420222686,0.150577777778,0.166420222686,0.150577777778,16,0.166420222686,0.150577777778,14
94,2804,images/INVk14.bmp,inverted,,,0.0,66.0,66.0,68.0,,,,,,,7.0,2.719,,,,,,,2016_May_02_1508,59.6907803356,Gestalt_exp1,1,17959,,14,0.166420222686,0.150577777778,0.166420222686,0.150577777778,16,0.166420222686,0.150577777778,14
95,2941,images/INVk14.bmp,inverted,,,0.0,42.0,42.0,68.0,,,,,,,7.0,2.118,,,,,,,2016_Apr_25_1505,59.9243641891,Gestalt_exp1,1,18019,,14,0.166420222686,0.150577777778,0.166420222686,0.150577777778,16,0.166420222686,0.150577777778,14
96,3065,images/INVk14.bmp,inverted,,,0.0,5.0,5.0,68.0,,,,,,,6.0,2.368,,,,,,,2016_Apr_21_1005,59.7296269661,Gestalt_exp1,1,18445,,14,0.166420222686,0.150577777778,0.166420222686,0.150577777778,16,0.166420222686,0.150577777778,14
97,3288,images/INVk14.bmp,inverted,,,0.0,67.0,67.0,68.0,,,,,,,4.0,2.702,,,,,,,2016_Aug_24_1628,59.9268471105,Gestalt_exp1,1,18460,,14,0.166420222686,0.150577777778,0.166420222686,0.150577777778,16,0.166420222686,0.150577777778,14
98,3391,images/INVk14.bmp,inverted,,,0.0,9.0,9.0,68.0,,,,,,,4.0,3.086,,,,,,,2016_Apr_18_1405,59.9667733237,Gestalt_exp1,1,18913,,14,0.166420222686,0.150577777778,0.166420222686,0.150577777778,16,0.166420222686,0.150577777778,14
99,3566,images/INVk14.bmp,inverted,,,0.0,23.0,23.0,68.0,,,,,,,3.0,1.868,,,,,,,2016_Apr_21_1208,60.2507825283,Gestalt_exp1,1,19201,,14,0.166420222686,0.150577777778,0.166420222686,0.150577777778,16,0.166420222686,0.150577777778,14
100,3722,images/INVk14.bmp,inverted,,,0.0,18.0,18.0,68.0,,,,,,,5.0,8.419,,,,,,,2016_Apr_21_1103,59.9290733528,Gestalt_exp1,1,19873,,14,0.166420222686,0.150577777778,0.166420222686,0.150577777778,16,0.166420222686,0.150577777778,14
101,3916,images/INVk14.bmp,inverted,,,0.0,51.0,51.0,68.0,,,,,,,5.0,1.253,,,,,,,2016_Apr_27_1412,59.9222239049,Gestalt_exp1,1,20353,,14,0.166420222686,0.150577777778,0.166420222686,0.150577777778,16,0.166420222686,0.150577777778,14
102,4029,images/INVk14.bmp,inverted,,,0.0,3.0,3.0,68.0,,,,,,,6.0,2.051,,,,,,,2016_Apr_25_1609,59.9377230175,Gestalt_exp1,1,20395,,14,0.166420222686,0.150577777778,0.166420222686,0.150577777778,16,0.166420222686,0.150577777778,14
103,4243,images/INVk14.bmp,inverted,,,0.0,56.0,56.0,68.0,,,,,,,6.0,1.502,,,,,,,2016_May_02_1605,59.9351535495,Gestalt_exp1,1,20404,,14,0.166420222686,0.150577777778,0.166420222686,0.150577777778,16,0.166420222686,0.150577777778,14
104,4400,images/INVk14.bmp,inverted,,,0.0,52.0,52.0,68.0,,,,,,,9.0,1.185,,,,,,,2016_Apr_28_1503,59.9133219629,Gestalt_exp1,1,20467,,14,0.166420222686,0.150577777778,0.166420222686,0.150577777778,16,0.166420222686,0.150577777778,14
105,4544,images/INVk14.bmp,inverted,,,0.0,35.0,35.0,68.0,,,,,,,4.0,2.819,,,,,,,2016_Apr_18_1604,59.9477460481,Gestalt_exp1,1,20650,,14,0.166420222686,0.150577777778,0.166420222686,0.150577777778,16,0.166420222686,0.150577777778,14
106,4706,images/INVk14.bmp,inverted,,,0.0,36.0,36.0,68.0,,,,,,,3.0,0.969,,,,,,,2016_May_03_1507,59.9243641891,Gestalt_exp1,1,20755,,14,0.166420222686,0.150577777778,0.166420222686,0.150577777778,16,0.166420222686,0.150577777778,14
107,4852,images/INVk14.bmp,inverted,,,0.0,21.0,21.0,68.0,,,,,,,7.0,3.584,,,,,,,2016_Apr_28_1404,59.7556663328,Gestalt_exp1,1,20803,,14,0.166420222686,0.150577777778,0.166420222686,0.150577777778,16,0.166420222686,0.150577777778,14
108,5044,images/INVk14.bmp,inverted,,,0.0,52.0,52.0,68.0,,,,,,,5.0,1.552,,,,,,,2016_Apr_28_1007,59.9207685989,Gestalt_exp1,1,20959,,14,0.166420222686,0.150577777778,0.166420222686,0.150577777778,16,0.166420222686,0.150577777778,14
109,5168,images/INVk14.bmp,inverted,,,0.0,15.0,15.0,68.0,,,,,,,2.0,2.369,,,,,,,2016_Oct_10_1709,59.9226519495,Gestalt_exp1,1,21055,,14,0.166420222686,0.150577777778,0.166420222686,0.150577777778,16,0.166420222686,0.150577777778,14
110,5380,images/INVk14.bmp,inverted,,,0.0,66.0,66.0,68.0,,,,,,,4.0,1.868,,,,,,,2016_Apr_21_1508,59.9182861812,Gestalt_exp1,1,21064,,14,0.166420222686,0.150577777778,0.166420222686,0.150577777778,16,0.166420222686,0.150577777778,14
111,5481,images/INVk14.bmp,inverted,,,0.0,6.0,6.0,68.0,,,,,,,6.0,2.385,,,,,,,2016_Apr_28_0910,59.91006999,Gestalt_exp1,1,21127,,14,0.166420222686,0.150577777778,0.166420222686,0.150577777778,16,0.166420222686,0.150577777778,14
112,5680,images/INVk14.bmp,inverted,,,0.0,44.0,44.0,68.0,,,,,,,6.0,2.102,,,,,,,2016_Oct_03_1706,59.9135787127,Gestalt_exp1,1,21271,,14,0.166420222686,0.150577777778,0.166420222686,0.150577777778,16,0.166420222686,0.150577777778,14
113,5835,images/INVk14.bmp,inverted,,,0.0,38.0,38.0,68.0,,,,,,,3.0,1.819,,,,,,,2016_Oct_10_1311,59.9078451593,Gestalt_exp1,1,21322,,14,0.166420222686,0.150577777778,0.166420222686,0.150577777778,16,0.166420222686,0.150577777778,14
114,5978,images/INVk14.bmp,inverted,,,0.0,20.0,20.0,68.0,,,,,,,8.0,0.952,,,,,,,2016_Apr_25_1410,59.9193989637,Gestalt_exp1,1,21436,,14,0.166420222686,0.150577777778,0.166420222686,0.150577777778,16,0.166420222686,0.150577777778,14
115,6139,images/INVk14.bmp,inverted,,,0.0,20.0,20.0,68.0,,,,,,,8.0,2.419,,,,,,,2016_May_03_1405,59.9272752211,Gestalt_exp1,1,21511,,14,0.166420222686,0.150577777778,0.166420222686,0.150577777778,16,0.166420222686,0.150577777778,14
116,6308,images/INVk14.bmp,inverted,,,0.0,28.0,28.0,68.0,,,,,,,5.0,1.669,,,,,,,2016_May_03_0911,59.9214534399,Gestalt_exp1,1,21625,,14,0.166420222686,0.150577777778,0.166420222686,0.150577777778,16,0.166420222686,0.150577777778,14
117,6481,images/INVk14.bmp,inverted,,,0.0,40.0,40.0,68.0,,,,,,,5.0,2.302,,,,,,,2016_Apr_15_1104,59.9215390462,Gestalt_exp1,1,21661,,14,0.166420222686,0.150577777778,0.166420222686,0.150577777778,16,0.166420222686,0.150577777778,14
118,6654,images/INVk14.bmp,inverted,,,0.0,52.0,52.0,68.0,,,,,,,4.0,1.152,,,,,,,2016_Apr_27_1506,59.7303925059,Gestalt_exp1,1,21700,,14,0.166420222686,0.150577777778,0.166420222686,0.150577777778,16,0.166420222686,0.150577777778,14
119,6838,images/INVk14.bmp,inverted,,,0.0,75.0,75.0,68.0,,,,,,,4.0,2.535,,,,,,,2016_Oct_17_1307,59.7253743245,Gestalt_exp1,1,22129,,14,0.166420222686,0.150577777778,0.166420222686,0.150577777778,16,0.166420222686,0.150577777778,14
120,6941,images/INVk14.bmp,inverted,,,0.0,17.0,17.0,68.0,,,,,,,5.0,1.719,,,,,,,2016_Oct_10_1606,59.9369521539,Gestalt_exp1,1,22168,,14,0.166420222686,0.150577777778,0.166420222686,0.150577777778,16,0.166420222686,0.150577777778,14
121,7137,images/INVk14.bmp,inverted,,,0.0,52.0,52.0,68.0,,,,,,,3.0,2.185,,,,,,,2016_Apr_21_0913,59.9258196698,Gestalt_exp1,1,22246,,14,0.166420222686,0.150577777778,0.166420222686,0.150577777778,16,0.166420222686,0.150577777778,14
122,7318,images/INVk14.bmp,inverted,,,0.0,72.0,72.0,68.0,,,,,,,6.0,1.386,,,,,,,2016_Sep_26_1110,59.8731249964,Gestalt_exp1,1,22315,,14,0.166420222686,0.150577777778,0.166420222686,0.150577777778,16,0.166420222686,0.150577777778,14
123,7461,images/INVk14.bmp,inverted,,,0.0,54.0,54.0,68.0,,,,,,,7.0,1.668,,,,,,,2016_Sep_26_1604,59.9215390462,Gestalt_exp1,1,22333,,14,0.166420222686,0.150577777778,0.166420222686,0.150577777778,16,0.166420222686,0.150577777778,14
124,7609,images/INVk14.bmp,inverted,,,0.0,41.0,41.0,68.0,,,,,,,8.0,3.903,,,,,,,2016_Apr_15_0910,59.9110968907,Gestalt_exp1,1,22339,,14,0.166420222686,0.150577777778,0.166420222686,0.150577777778,16,0.166420222686,0.150577777778,14
125,7752,images/INVk14.bmp,inverted,,,0.0,23.0,23.0,68.0,,,,,,,5.0,1.969,,,,,,,2016_May_02_1406,59.9117815107,Gestalt_exp1,1,22567,,14,0.166420222686,0.150577777778,0.166420222686,0.150577777778,16,0.166420222686,0.150577777778,14
126,7907,images/INVk14.bmp,inverted,,,0.0,17.0,17.0,68.0,,,,,,,3.0,4.419,,,,,,,2016_Apr_15_1316,59.9229087792,Gestalt_exp1,1,22681,,14,0.166420222686,0.150577777778,0.166420222686,0.150577777778,16,0.166420222686,0.150577777778,14
127,8063,images/INVk14.bmp,inverted,,,0.0,12.0,12.0,68.0,,,,,,,6.0,4.351,,,,,,,2016_Apr_18_1505,59.9215390462,Gestalt_exp1,1,22819,,14,0.166420222686,0.150577777778,0.166420222686,0.150577777778,16,0.166420222686,0.150577777778,14
128,8280,images/INVk14.bmp,inverted,,,0.0,68.0,68.0,68.0,,,,,,,6.0,1.335,,,,,,,2016_Oct_17_1210,59.9243641891,Gestalt_exp1,1,22987,,14,0.166420222686,0.150577777778,0.166420222686,0.150577777778,16,0.166420222686,0.150577777778,14
129,8380,images/INVk14.bmp,inverted,,,0.0,7.0,7.0,68.0,,,,,,,5.0,1.602,,,,,,,2016_Apr_25_1714,59.9520304169,Gestalt_exp1,1,23068,,14,0.166420222686,0.150577777778,0.166420222686,0.150577777778,16,0.166420222686,0.150577777778,14
130,8594,images/INVk14.bmp,inverted,,,0.0,60.0,60.0,68.0,,,,,,,7.0,2.285,,,,,,,2016_Apr_28_1203,59.917858199,Gestalt_exp1,1,23086,,14,0.166420222686,0.150577777778,0.166420222686,0.150577777778,16,0.166420222686,0.150577777778,14
131,8740,images/INVk14.bmp,inverted,,,0.0,45.0,45.0,68.0,,,,,,,6.0,2.952,,,,,,,2016_May_04_1404,59.9031393311,Gestalt_exp1,1,23125,,14,0.166420222686,0.150577777778,0.166420222686,0.150577777778,16,0.166420222686,0.150577777778,14
132,8857,images/INVk14.bmp,inverted,,,0.0,1.0,1.0,68.0,,,,,,,6.0,4.753,,,,,,,2016_May_03_1309,59.9276177141,Gestalt_exp1,1,23143,,14,0.166420222686,0.150577777778,0.166420222686,0.150577777778,16,0.166420222686,0.150577777778,14
133,9099,images/INVk14.bmp,inverted,,,0.0,82.0,82.0,68.0,,,,,,,5.0,2.569,,,,,,,2016_Aug_24_1146,59.9168310665,Gestalt_exp1,1,23713,,14,0.166420222686,0.150577777778,0.166420222686,0.150577777778,16,0.166420222686,0.150577777778,14
134,9208,images/INVk14.bmp,inverted,,,0.0,30.0,30.0,68.0,,,,,,,5.0,2.519,,,,,,,2016_Oct_03_1507,59.9208542032,Gestalt_exp1,1,23767,,14,0.166420222686,0.150577777778,0.166420222686,0.150577777778,16,0.166420222686,0.150577777778,14
135,9419,images/INVk14.bmp,inverted,,,0.0,80.0,80.0,68.0,,,,,,,5.0,2.752,,,,,,,2016_Sep_26_0916,60.0066669242,Gestalt_exp1,1,23800,,14,0.166420222686,0.150577777778,0.166420222686,0.150577777778,16,0.166420222686,0.150577777778,14
136,9579,images/INVk14.bmp,inverted,,,0.0,79.0,79.0,68.0,,,,,,,4.0,1.802,,,,,,,2016_Oct_03_1558,59.9240217334,Gestalt_exp1,1,23854,,14,0.166420222686,0.150577777778,0.166420222686,0.150577777778,16,0.166420222686,0.150577777778,14
137,9673,images/INVk14.bmp,inverted,,,0.0,12.0,12.0,68.0,,,,,,,2.0,2.501,,,,,,,2016_Sep_19_1307,59.9444903373,Gestalt_exp1,1,23878,,14,0.166420222686,0.150577777778,0.166420222686,0.150577777778,16,0.166420222686,0.150577777778,14
138,9897,images/INVk14.bmp,inverted,,,0.0,75.0,75.0,68.0,,,,,,,6.0,1.852,,,,,,,2016_Sep_26_1508,59.9207685989,Gestalt_exp1,1,23926,,14,0.166420222686,0.150577777778,0.166420222686,0.150577777778,16,0.166420222686,0.150577777778,14
139,10001,images/INVk14.bmp,inverted,,,0.0,18.0,18.0,68.0,,,,,,,5.0,1.752,,,,,,,2016_Oct_17_1407,59.7424736206,Gestalt_exp1,1,23950,,14,0.166420222686,0.150577777778,0.166420222686,0.150577777778,16,0.166420222686,0.150577777778,14
140,10186,images/INVk14.bmp,inverted,,,0.0,42.0,42.0,68.0,,,,,,,4.0,1.719,,,,,,,2016_Oct_10_0910,59.9182861812,Gestalt_exp1,1,23956,,14,0.166420222686,0.150577777778,0.166420222686,0.150577777778,16,0.166420222686,0.150577777778,14
141,10327,images/INVk14.bmp,inverted,,,0.0,22.0,22.0,68.0,,,,,,,5.0,1.918,,,,,,,2016_Oct_10_1407,59.8974933131,Gestalt_exp1,1,23962,,14,0.166420222686,0.150577777778,0.166420222686,0.150577777778,16,0.166420222686,0.150577777778,14
142,10530,images/INVk14.bmp,inverted,,,0.0,64.0,64.0,68.0,,,,,,,8.0,2.236,,,,,,,2016_Oct_24_1504,59.917858199,Gestalt_exp1,1,23986,,14,0.166420222686,0.150577777778,0.166420222686,0.150577777778,16,0.166420222686,0.150577777778,14
143,10628,images/INVk14.bmp,inverted,,,0.0,1.0,1.0,68.0,,,,,,,5.0,3.219,,,,,,,2016_Oct_17_1612,59.928987725,Gestalt_exp1,1,24154,,14,0.166420222686,0.150577777778,0.166420222686,0.150577777778,16,0.166420222686,0.150577777778,14
144,10835,images/INVk14.bmp,inverted,,,0.0,47.0,47.0,68.0,,,,,,,5.0,1.302,,,,,,,2016_Oct_17_0910,59.9050215737,Gestalt_exp1,1,24205,,14,0.166420222686,0.150577777778,0.166420222686,0.150577777778,16,0.166420222686,0.150577777778,14
145,11012,images/INVk14.bmp,inverted,,,0.0,63.0,63.0,68.0,,,,,,,1.0,1.818,,,,,,,2016_Oct_10_1205,59.7263949033,Gestalt_exp1,1,24208,,14,0.166420222686,0.150577777778,0.166420222686,0.150577777778,16,0.166420222686,0.150577777778,14
146,11181,images/INVk14.bmp,inverted,,,0.0,71.0,71.0,68.0,,,,,,,7.0,1.368,,,,,,,2016_Oct_17_1709,59.9092998376,Gestalt_exp1,1,24331,,14,0.166420222686,0.150577777778,0.166420222686,0.150577777778,16,0.166420222686,0.150577777778,14
147,11279,images/INVk14.bmp,inverted,,,0.0,8.0,8.0,68.0,,,,,,,3.0,4.818,,,,,,,2016_Oct_24_1105,59.9243641891,Gestalt_exp1,1,24355,,14,0.166420222686,0.150577777778,0.166420222686,0.150577777778,16,0.166420222686,0.150577777778,14
148,11466,images/INVk14.bmp,inverted,,,0.0,34.0,34.0,68.0,,,,,,,2.0,4.868,,,,,,,2016_Oct_24_1209,59.9204261842,Gestalt_exp1,1,24394,,14,0.166420222686,0.150577777778,0.166420222686,0.150577777778,16,0.166420222686,0.150577777778,14
149,11607,images/INVk14.bmp,inverted,,,0.0,14.0,14.0,68.0,,,,,,,6.0,1.319,,,,,,,2016_Oct_24_1011,59.728181,Gestalt_exp1,1,24679,,14,0.166420222686,0.150577777778,0.166420222686,0.150577777778,16,0.166420222686,0.150577777778,14
150,11756,images/INVk14.bmp,inverted,,,0.0,2.0,2.0,68.0,,,,,,,4.0,9.752,,,,,,,2016_Oct_24_0919,59.9024549086,Gestalt_exp1,1,24814,,14,0.166420222686,0.150577777778,0.166420222686,0.150577777778,16,0.166420222686,0.150577777778,14
151,11940,images/INVk14.bmp,inverted,,,0.0,25.0,25.0,68.0,,,,,,,5.0,1.935,,,,,,,2016_Oct_24_1605,59.9218814736,Gestalt_exp1,1,25255,,14,0.166420222686,0.150577777778,0.166420222686,0.150577777778,16,0.166420222686,0.150577777778,14
152,12112,images/INVk14.bmp,inverted,,,0.0,36.0,36.0,68.0,,,,,,,5.0,2.102,,,,,,,2016_Oct_24_1707,59.9232512222,Gestalt_exp1,1,25273,,14,0.166420222686,0.150577777778,0.166420222686,0.150577777778,16,0.166420222686,0.150577777778,14
153,12303,images/INVk14.bmp,inverted,,,0.0,66.0,66.0,68.0,,,,,,,3.0,1.218,,,,,,,2016_Oct_24_1308,59.9179437949,Gestalt_exp1,1,25306,,14,0.166420222686,0.150577777778,0.166420222686,0.150577777778,16,0.166420222686,0.150577777778,14
154,3,images/INVk23.bmp,inverted,,,0.0,2.0,2.0,75.0,,,,,,,6.0,8.569,,,,,,,2016_Oct_17_1007,59.9207685989,Gestalt_exp1,1,5635,,23,0.0380221297479,0.446866666667,0.0380221297479,0.446866666667,23,0.0380221297479,0.446866666667,23
155,210,images/INVk23.bmp,inverted,,,0.0,48.0,48.0,75.0,,,,,,,5.0,2.736,,,,,,,2016_Oct_24_1403,59.9081874302,Gestalt_exp1,1,7333,,23,0.0380221297479,0.446866666667,0.0380221297479,0.446866666667,23,0.0380221297479,0.446866666667,23
156,372,images/INVk23.bmp,inverted,,,0.0,49.0,49.0,75.0,,,,,,,2.0,0.885,,,,,,,2016_Oct_17_1508,59.7289465027,Gestalt_exp1,1,7576,,23,0.0380221297479,0.446866666667,0.0380221297479,0.446866666667,23,0.0380221297479,0.446866666667,23
157,490,images/INVk23.bmp,inverted,,,0.0,6.0,6.0,75.0,,,,,,,5.0,2.419,,,,,,,2016_May_03_1203,60.0146520147,Gestalt_exp1,1,9010,,23,0.0380221297479,0.446866666667,0.0380221297479,0.446866666667,23,0.0380221297479,0.446866666667,23
158,706,images/INVk23.bmp,inverted,,,0.0,61.0,61.0,75.0,,,,,,,5.0,1.669,,,,,,,2016_Sep_19_1511,59.8884276929,Gestalt_exp1,1,11485,,23,0.0380221297479,0.446866666667,0.0380221297479,0.446866666667,23,0.0380221297479,0.446866666667,23
159,875,images/INVk23.bmp,inverted,,,0.0,69.0,69.0,75.0,,,,,,,4.0,1.719,,,,,,,2016_Apr_15_1205,59.8039758064,Gestalt_exp1,1,11707,,23,0.0380221297479,0.446866666667,0.0380221297479,0.446866666667,23,0.0380221297479,0.446866666667,23
160,1021,images/INVk23.bmp,inverted,,,0.0,54.0,54.0,75.0,,,,,,,5.0,1.386,,,,,,,2016_Apr_21_1606,59.9297583837,Gestalt_exp1,1,11755,,23,0.0380221297479,0.446866666667,0.0380221297479,0.446866666667,23,0.0380221297479,0.446866666667,23
161,1203,images/INVk23.bmp,inverted,,,0.0,75.0,75.0,75.0,,,,,,,4.0,2.419,,,,,,,2016_Sep_26_1705,59.9161463311,Gestalt_exp1,1,11758,,23,0.0380221297479,0.446866666667,0.0380221297479,0.446866666667,23,0.0380221297479,0.446866666667,23
162,1366,images/INVk23.bmp,inverted,,,0.0,77.0,77.0,75.0,,,,,,,2.0,1.018,,,,,,,2016_Oct_03_1406,59.8820149965,Gestalt_exp1,1,12139,,23,0.0380221297479,0.446866666667,0.0380221297479,0.446866666667,23,0.0380221297479,0.446866666667,23
163,1526,images/INVk23.bmp,inverted,,,0.0,76.0,76.0,75.0,,,,,,,8.0,1.585,,,,,,,2016_Aug_24_1710,59.9186285714,Gestalt_exp1,1,13105,,23,0.0380221297479,0.446866666667,0.0380221297479,0.446866666667,23,0.0380221297479,0.446866666667,23
164,1667,images/INVk23.bmp,inverted,,,0.0,56.0,56.0,75.0,,,,,,,5.0,1.368,,,,,,,2016_Apr_18_1709,59.9075028923,Gestalt_exp1,1,13201,,23,0.0380221297479,0.446866666667,0.0380221297479,0.446866666667,23,0.0380221297479,0.446866666667,23
165,1823,images/INVk23.bmp,inverted,,,0.0,51.0,51.0,75.0,,,,,,,8.0,1.786,,,,,,,2016_Oct_17_1105,59.9175158176,Gestalt_exp1,1,13831,,23,0.0380221297479,0.446866666667,0.0380221297479,0.446866666667,23,0.0380221297479,0.446866666667,23
166,1969,images/INVk23.bmp,inverted,,,0.0,36.0,36.0,75.0,,,,,,,5.0,2.202,,,,,,,2016_Oct_10_1504,59.8748344068,Gestalt_exp1,1,14596,,23,0.0380221297479,0.446866666667,0.0380221297479,0.446866666667,23,0.0380221297479,0.446866666667,23
167,2096,images/INVk23.bmp,inverted,,,0.0,2.0,2.0,75.0,,,,,,,4.0,2.585,,,,,,,2016_Sep_26_1208,59.9193133636,Gestalt_exp1,1,15643,,23,0.0380221297479,0.446866666667,0.0380221297479,0.446866666667,23,0.0380221297479,0.446866666667,23
168,2328,images/INVk23.bmp,inverted,,,0.0,73.0,73.0,75.0,,,,,,,4.0,1.002,,,,,,,2016_May_03_1106,59.9186285714,Gestalt_exp1,1,15928,,23,0.0380221297479,0.446866666667,0.0380221297479,0.446866666667,23,0.0380221297479,0.446866666667,23
169,2476,images/INVk23.bmp,inverted,,,0.0,60.0,60.0,75.0,,,,,,,5.0,1.352,,,,,,,2016_Apr_15_1406,60.0222097563,Gestalt_exp1,1,16522,,23,0.0380221297479,0.446866666667,0.0380221297479,0.446866666667,23,0.0380221297479,0.446866666667,23
170,2590,images/INVk23.bmp,inverted,,,0.0,13.0,13.0,75.0,,,,,,,4.0,1.734,,,,,,,2016_Apr_15_1507,59.7114299096,Gestalt_exp1,1,16891,,23,0.0380221297479,0.446866666667,0.0380221297479,0.446866666667,23,0.0380221297479,0.446866666667,23
171,2742,images/INVk23.bmp,inverted,,,0.0,4.0,4.0,75.0,,,,,,,5.0,2.1,,,,,,,2016_May_02_1508,59.6907803356,Gestalt_exp1,1,17959,,23,0.0380221297479,0.446866666667,0.0380221297479,0.446866666667,23,0.0380221297479,0.446866666667,23
172,2965,images/INVk23.bmp,inverted,,,0.0,66.0,66.0,75.0,,,,,,,3.0,1.868,,,,,,,2016_Apr_25_1505,59.9243641891,Gestalt_exp1,1,18019,,23,0.0380221297479,0.446866666667,0.0380221297479,0.446866666667,23,0.0380221297479,0.446866666667,23
173,3063,images/INVk23.bmp,inverted,,,0.0,3.0,3.0,75.0,,,,,,,6.0,2.585,,,,,,,2016_Apr_21_1005,59.7296269661,Gestalt_exp1,1,18445,,23,0.0380221297479,0.446866666667,0.0380221297479,0.446866666667,23,0.0380221297479,0.446866666667,23
174,3253,images/INVk23.bmp,inverted,,,0.0,32.0,32.0,75.0,,,,,,,5.0,2.236,,,,,,,2016_Aug_24_1628,59.9268471105,Gestalt_exp1,1,18460,,23,0.0380221297479,0.446866666667,0.0380221297479,0.446866666667,23,0.0380221297479,0.446866666667,23
175,3449,images/INVk23.bmp,inverted,,,0.0,67.0,67.0,75.0,,,,,,,5.0,0.768,,,,,,,2016_Apr_18_1405,59.9667733237,Gestalt_exp1,1,18913,,23,0.0380221297479,0.446866666667,0.0380221297479,0.446866666667,23,0.0380221297479,0.446866666667,23
176,3559,images/INVk23.bmp,inverted,,,0.0,16.0,16.0,75.0,,,,,,,3.0,1.902,,,,,,,2016_Apr_21_1208,60.2507825283,Gestalt_exp1,1,19201,,23,0.0380221297479,0.446866666667,0.0380221297479,0.446866666667,23,0.0380221297479,0.446866666667,23
177,3747,images/INVk23.bmp,inverted,,,0.0,43.0,43.0,75.0,,,,,,,5.0,1.502,,,,,,,2016_Apr_21_1103,59.9290733528,Gestalt_exp1,1,19873,,23,0.0380221297479,0.446866666667,0.0380221297479,0.446866666667,23,0.0380221297479,0.446866666667,23
178,3884,images/INVk23.bmp,inverted,,,0.0,19.0,19.0,75.0,,,,,,,5.0,1.235,,,,,,,2016_Apr_27_1412,59.9222239049,Gestalt_exp1,1,20353,,23,0.0380221297479,0.446866666667,0.0380221297479,0.446866666667,23,0.0380221297479,0.446866666667,23
179,4094,images/INVk23.bmp,inverted,,,0.0,68.0,68.0,75.0,,,,,,,3.0,1.119,,,,,,,2016_Apr_25_1609,59.9377230175,Gestalt_exp1,1,20395,,23,0.0380221297479,0.446866666667,0.0380221297479,0.446866666667,23,0.0380221297479,0.446866666667,23
180,4246,images/INVk23.bmp,inverted,,,0.0,59.0,59.0,75.0,,,,,,,5.0,1.518,,,,,,,2016_May_02_1605,59.9351535495,Gestalt_exp1,1,20404,,23,0.0380221297479,0.446866666667,0.0380221297479,0.446866666667,23,0.0380221297479,0.446866666667,23
181,4349,images/INVk23.bmp,inverted,,,0.0,1.0,1.0,75.0,,,,,,,1.0,9.019,,,,,,,2016_Apr_28_1503,59.9133219629,Gestalt_exp1,1,20467,,23,0.0380221297479,0.446866666667,0.0380221297479,0.446866666667,23,0.0380221297479,0.446866666667,23
182,4569,images/INVk23.bmp,inverted,,,0.0,60.0,60.0,75.0,,,,,,,6.0,1.853,,,,,,,2016_Apr_18_1604,59.9477460481,Gestalt_exp1,1,20650,,23,0.0380221297479,0.446866666667,0.0380221297479,0.446866666667,23,0.0380221297479,0.446866666667,23
183,4709,images/INVk23.bmp,inverted,,,0.0,39.0,39.0,75.0,,,,,,,2.0,1.551,,,,,,,2016_May_03_1507,59.9243641891,Gestalt_exp1,1,20755,,23,0.0380221297479,0.446866666667,0.0380221297479,0.446866666667,23,0.0380221297479,0.446866666667,23
184,4861,images/INVk23.bmp,inverted,,,0.0,30.0,30.0,75.0,,,,,,,4.0,1.085,,,,,,,2016_Apr_28_1404,59.7556663328,Gestalt_exp1,1,20803,,23,0.0380221297479,0.446866666667,0.0380221297479,0.446866666667,23,0.0380221297479,0.446866666667,23
185,4999,images/INVk23.bmp,inverted,,,0.0,7.0,7.0,75.0,,,,,,,5.0,2.203,,,,,,,2016_Apr_28_1007,59.9207685989,Gestalt_exp1,1,20959,,23,0.0380221297479,0.446866666667,0.0380221297479,0.446866666667,23,0.0380221297479,0.446866666667,23
186,5228,images/INVk23.bmp,inverted,,,0.0,75.0,75.0,75.0,,,,,,,6.0,1.385,,,,,,,2016_Oct_10_1709,59.9226519495,Gestalt_exp1,1,21055,,23,0.0380221297479,0.446866666667,0.0380221297479,0.446866666667,23,0.0380221297479,0.446866666667,23
187,5325,images/INVk23.bmp,inverted,,,0.0,11.0,11.0,75.0,,,,,,,6.0,1.801,,,,,,,2016_Apr_21_1508,59.9182861812,Gestalt_exp1,1,21064,,23,0.0380221297479,0.446866666667,0.0380221297479,0.446866666667,23,0.0380221297479,0.446866666667,23
188,5530,images/INVk23.bmp,inverted,,,0.0,55.0,55.0,75.0,,,,,,,5.0,1.169,,,,,,,2016_Apr_28_0910,59.91006999,Gestalt_exp1,1,21127,,23,0.0380221297479,0.446866666667,0.0380221297479,0.446866666667,23,0.0380221297479,0.446866666667,23
189,5686,images/INVk23.bmp,inverted,,,0.0,50.0,50.0,75.0,,,,,,,5.0,2.552,,,,,,,2016_Oct_03_1706,59.9135787127,Gestalt_exp1,1,21271,,23,0.0380221297479,0.446866666667,0.0380221297479,0.446866666667,23,0.0380221297479,0.446866666667,23
190,5819,images/INVk23.bmp,inverted,,,0.0,22.0,22.0,75.0,,,,,,,9.0,2.452,,,,,,,2016_Oct_10_1311,59.9078451593,Gestalt_exp1,1,21322,,23,0.0380221297479,0.446866666667,0.0380221297479,0.446866666667,23,0.0380221297479,0.446866666667,23
191,6005,images/INVk23.bmp,inverted,,,0.0,47.0,47.0,75.0,,,,,,,8.0,1.853,,,,,,,2016_Apr_25_1410,59.9193989637,Gestalt_exp1,1,21436,,23,0.0380221297479,0.446866666667,0.0380221297479,0.446866666667,23,0.0380221297479,0.446866666667,23
192,6129,images/INVk23.bmp,inverted,,,0.0,10.0,10.0,75.0,,,,,,,4.0,1.619,,,,,,,2016_May_03_1405,59.9272752211,Gestalt_exp1,1,21511,,23,0.0380221297479,0.446866666667,0.0380221297479,0.446866666667,23,0.0380221297479,0.446866666667,23
193,6280,images/INVk23.bmp,inverted,,,0.0,0.0,0.0,75.0,,,,,,,2.0,10.285,,,,,,,2016_May_03_0911,59.9214534399,Gestalt_exp1,1,21625,,23,0.0380221297479,0.446866666667,0.0380221297479,0.446866666667,23,0.0380221297479,0.446866666667,23
194,6509,images/INVk23.bmp,inverted,,,0.0,68.0,68.0,75.0,,,,,,,4.0,2.852,,,,,,,2016_Apr_15_1104,59.9215390462,Gestalt_exp1,1,21661,,23,0.0380221297479,0.446866666667,0.0380221297479,0.446866666667,23,0.0380221297479,0.446866666667,23
195,6684,images/INVk23.bmp,inverted,,,0.0,82.0,82.0,75.0,,,,,,,4.0,1.152,,,,,,,2016_Apr_27_1506,59.7303925059,Gestalt_exp1,1,21700,,23,0.0380221297479,0.446866666667,0.0380221297479,0.446866666667,23,0.0380221297479,0.446866666667,23
196,6839,images/INVk23.bmp,inverted,,,0.0,76.0,76.0,75.0,,,,,,,5.0,1.202,,,,,,,2016_Oct_17_1307,59.7253743245,Gestalt_exp1,1,22129,,23,0.0380221297479,0.446866666667,0.0380221297479,0.446866666667,23,0.0380221297479,0.446866666667,23
197,6991,images/INVk23.bmp,inverted,,,0.0,67.0,67.0,75.0,,,,,,,5.0,1.652,,,,,,,2016_Oct_10_1606,59.9369521539,Gestalt_exp1,1,22168,,23,0.0380221297479,0.446866666667,0.0380221297479,0.446866666667,23,0.0380221297479,0.446866666667,23
198,7124,images/INVk23.bmp,inverted,,,0.0,39.0,39.0,75.0,,,,,,,4.0,2.668,,,,,,,2016_Apr_21_0913,59.9258196698,Gestalt_exp1,1,22246,,23,0.0380221297479,0.446866666667,0.0380221297479,0.446866666667,23,0.0380221297479,0.446866666667,23
199,7269,images/INVk23.bmp,inverted,,,0.0,23.0,23.0,75.0,,,,,,,4.0,1.419,,,,,,,2016_Sep_26_1110,59.8731249964,Gestalt_exp1,1,22315,,23,0.0380221297479,0.446866666667,0.0380221297479,0.446866666667,23,0.0380221297479,0.446866666667,23
200,7446,images/INVk23.bmp,inverted,,,0.0,39.0,39.0,75.0,,,,,,,5.0,1.903,,,,,,,2016_Sep_26_1604,59.9215390462,Gestalt_exp1,1,22333,,23,0.0380221297479,0.446866666667,0.0380221297479,0.446866666667,23,0.0380221297479,0.446866666667,23
201,7572,images/INVk23.bmp,inverted,,,0.0,4.0,4.0,75.0,,,,,,,7.0,3.035,,,,,,,2016_Apr_15_0910,59.9110968907,Gestalt_exp1,1,22339,,23,0.0380221297479,0.446866666667,0.0380221297479,0.446866666667,23,0.0380221297479,0.446866666667,23
202,7763,images/INVk23.bmp,inverted,,,0.0,34.0,34.0,75.0,,,,,,,5.0,1.085,,,,,,,2016_May_02_1406,59.9117815107,Gestalt_exp1,1,22567,,23,0.0380221297479,0.446866666667,0.0380221297479,0.446866666667,23,0.0380221297479,0.446866666667,23
203,7916,images/INVk23.bmp,inverted,,,0.0,26.0,26.0,75.0,,,,,,,7.0,2.352,,,,,,,2016_Apr_15_1316,59.9229087792,Gestalt_exp1,1,22681,,23,0.0380221297479,0.446866666667,0.0380221297479,0.446866666667,23,0.0380221297479,0.446866666667,23
204,8056,images/INVk23.bmp,inverted,,,0.0,5.0,5.0,75.0,,,,,,,6.0,4.285,,,,,,,2016_Apr_18_1505,59.9215390462,Gestalt_exp1,1,22819,,23,0.0380221297479,0.446866666667,0.0380221297479,0.446866666667,23,0.0380221297479,0.446866666667,23
205,8266,images/INVk23.bmp,inverted,,,0.0,54.0,54.0,75.0,,,,,,,2.0,1.518,,,,,,,2016_Oct_17_1210,59.9243641891,Gestalt_exp1,1,22987,,23,0.0380221297479,0.446866666667,0.0380221297479,0.446866666667,23,0.0380221297479,0.446866666667,23
206,8428,images/INVk23.bmp,inverted,,,0.0,55.0,55.0,75.0,,,,,,,5.0,1.652,,,,,,,2016_Apr_25_1714,59.9520304169,Gestalt_exp1,1,23068,,23,0.0380221297479,0.446866666667,0.0380221297479,0.446866666667,23,0.0380221297479,0.446866666667,23
207,8607,images/INVk23.bmp,inverted,,,0.0,73.0,73.0,75.0,,,,,,,3.0,1.619,,,,,,,2016_Apr_28_1203,59.917858199,Gestalt_exp1,1,23086,,23,0.0380221297479,0.446866666667,0.0380221297479,0.446866666667,23,0.0380221297479,0.446866666667,23
208,8706,images/INVk23.bmp,inverted,,,0.0,11.0,11.0,75.0,,,,,,,6.0,2.269,,,,,,,2016_May_04_1404,59.9031393311,Gestalt_exp1,1,23125,,23,0.0380221297479,0.446866666667,0.0380221297479,0.446866666667,23,0.0380221297479,0.446866666667,23
209,8897,images/INVk23.bmp,inverted,,,0.0,41.0,41.0,75.0,,,,,,,4.0,3.419,,,,,,,2016_May_03_1309,59.9276177141,Gestalt_exp1,1,23143,,23,0.0380221297479,0.446866666667,0.0380221297479,0.446866666667,23,0.0380221297479,0.446866666667,23
210,9089,images/INVk23.bmp,inverted,,,0.0,72.0,72.0,75.0,,,,,,,2.0,1.851,,,,,,,2016_Aug_24_1146,59.9168310665,Gestalt_exp1,1,23713,,23,0.0380221297479,0.446866666667,0.0380221297479,0.446866666667,23,0.0380221297479,0.446866666667,23
211,9184,images/INVk23.bmp,inverted,,,0.0,6.0,6.0,75.0,,,,,,,1.0,2.937,,,,,,,2016_Oct_03_1507,59.9208542032,Gestalt_exp1,1,23767,,23,0.0380221297479,0.446866666667,0.0380221297479,0.446866666667,23,0.0380221297479,0.446866666667,23
212,9402,images/INVk23.bmp,inverted,,,0.0,63.0,63.0,75.0,,,,,,,4.0,2.018,,,,,,,2016_Sep_26_0916,60.0066669242,Gestalt_exp1,1,23800,,23,0.0380221297479,0.446866666667,0.0380221297479,0.446866666667,23,0.0380221297479,0.446866666667,23
213,9526,images/INVk23.bmp,inverted,,,0.0,26.0,26.0,75.0,,,,,,,3.0,2.236,,,,,,,2016_Oct_03_1558,59.9240217334,Gestalt_exp1,1,23854,,23,0.0380221297479,0.446866666667,0.0380221297479,0.446866666667,23,0.0380221297479,0.446866666667,23
214,9696,images/INVk23.bmp,inverted,,,0.0,35.0,35.0,75.0,,,,,,,2.0,1.702,,,,,,,2016_Sep_19_1307,59.9444903373,Gestalt_exp1,1,23878,,23,0.0380221297479,0.446866666667,0.0380221297479,0.446866666667,23,0.0380221297479,0.446866666667,23
215,9874,images/INVk23.bmp,inverted,,,0.0,52.0,52.0,75.0,,,,,,,4.0,1.252,,,,,,,2016_Sep_26_1508,59.9207685989,Gestalt_exp1,1,23926,,23,0.0380221297479,0.446866666667,0.0380221297479,0.446866666667,23,0.0380221297479,0.446866666667,23
216,10021,images/INVk23.bmp,inverted,,,0.0,38.0,38.0,75.0,,,,,,,5.0,2.535,,,,,,,2016_Oct_17_1407,59.7424736206,Gestalt_exp1,1,23950,,23,0.0380221297479,0.446866666667,0.0380221297479,0.446866666667,23,0.0380221297479,0.446866666667,23
217,10188,images/INVk23.bmp,inverted,,,0.0,44.0,44.0,75.0,,,,,,,5.0,1.369,,,,,,,2016_Oct_10_0910,59.9182861812,Gestalt_exp1,1,23956,,23,0.0380221297479,0.446866666667,0.0380221297479,0.446866666667,23,0.0380221297479,0.446866666667,23
218,10348,images/INVk23.bmp,inverted,,,0.0,43.0,43.0,75.0,,,,,,,6.0,1.986,,,,,,,2016_Oct_10_1407,59.8974933131,Gestalt_exp1,1,23962,,23,0.0380221297479,0.446866666667,0.0380221297479,0.446866666667,23,0.0380221297479,0.446866666667,23
219,10476,images/INVk23.bmp,inverted,,,0.0,10.0,10.0,75.0,,,,,,,4.0,3.035,,,,,,,2016_Oct_24_1504,59.917858199,Gestalt_exp1,1,23986,,23,0.0380221297479,0.446866666667,0.0380221297479,0.446866666667,23,0.0380221297479,0.446866666667,23
220,10640,images/INVk23.bmp,inverted,,,0.0,13.0,13.0,75.0,,,,,,,6.0,2.319,,,,,,,2016_Oct_17_1612,59.928987725,Gestalt_exp1,1,24154,,23,0.0380221297479,0.446866666667,0.0380221297479,0.446866666667,23,0.0380221297479,0.446866666667,23
221,10828,images/INVk23.bmp,inverted,,,0.0,40.0,40.0,75.0,,,,,,,5.0,0.918,,,,,,,2016_Oct_17_0910,59.9050215737,Gestalt_exp1,1,24205,,23,0.0380221297479,0.446866666667,0.0380221297479,0.446866666667,23,0.0380221297479,0.446866666667,23
222,10973,images/INVk23.bmp,inverted,,,0.0,24.0,24.0,75.0,,,,,,,5.0,2.368,,,,,,,2016_Oct_10_1205,59.7263949033,Gestalt_exp1,1,24208,,23,0.0380221297479,0.446866666667,0.0380221297479,0.446866666667,23,0.0380221297479,0.446866666667,23
223,11117,images/INVk23.bmp,inverted,,,0.0,7.0,7.0,75.0,,,,,,,4.0,2.836,,,,,,,2016_Oct_17_1709,59.9092998376,Gestalt_exp1,1,24331,,23,0.0380221297479,0.446866666667,0.0380221297479,0.446866666667,23,0.0380221297479,0.446866666667,23
224,11334,images/INVk23.bmp,inverted,,,0.0,63.0,63.0,75.0,,,,,,,3.0,2.485,,,,,,,2016_Oct_24_1105,59.9243641891,Gestalt_exp1,1,24355,,23,0.0380221297479,0.446866666667,0.0380221297479,0.446866666667,23,0.0380221297479,0.446866666667,23
225,11478,images/INVk23.bmp,inverted,,,0.0,46.0,46.0,75.0,,,,,,,1.0,2.085,,,,,,,2016_Oct_24_1209,59.9204261842,Gestalt_exp1,1,24394,,23,0.0380221297479,0.446866666667,0.0380221297479,0.446866666667,23,0.0380221297479,0.446866666667,23
226,11661,images/INVk23.bmp,inverted,,,0.0,68.0,68.0,75.0,,,,,,,5.0,1.668,,,,,,,2016_Oct_24_1011,59.728181,Gestalt_exp1,1,24679,,23,0.0380221297479,0.446866666667,0.0380221297479,0.446866666667,23,0.0380221297479,0.446866666667,23
227,11806,images/INVk23.bmp,inverted,,,0.0,52.0,52.0,75.0,,,,,,,5.0,3.035,,,,,,,2016_Oct_24_0919,59.9024549086,Gestalt_exp1,1,24814,,23,0.0380221297479,0.446866666667,0.0380221297479,0.446866666667,23,0.0380221297479,0.446866666667,23
228,11989,images/INVk23.bmp,inverted,,,0.0,74.0,74.0,75.0,,,,,,,5.0,1.435,,,,,,,2016_Oct_24_1605,59.9218814736,Gestalt_exp1,1,25255,,23,0.0380221297479,0.446866666667,0.0380221297479,0.446866666667,23,0.0380221297479,0.446866666667,23
229,12096,images/INVk23.bmp,inverted,,,0.0,20.0,20.0,75.0,,,,,,,4.0,1.802,,,,,,,2016_Oct_24_1707,59.9232512222,Gestalt_exp1,1,25273,,23,0.0380221297479,0.446866666667,0.0380221297479,0.446866666667,23,0.0380221297479,0.446866666667,23
230,12309,images/INVk23.bmp,inverted,,,0.0,72.0,72.0,75.0,,,,,,,7.0,1.652,,,,,,,2016_Oct_24_1308,59.9179437949,Gestalt_exp1,1,25306,,23,0.0380221297479,0.446866666667,0.0380221297479,0.446866666667,23,0.0380221297479,0.446866666667,23
231,4,images/INVk30.bmp,inverted,,,0.0,3.0,3.0,82.0,,,,,,,7.0,2.835,,,,,,,2016_Oct_17_1007,59.9207685989,Gestalt_exp1,1,5635,,30,0.0753787475476,0.257222222222,0.0753787475476,0.257222222222,30,0.0753787475476,0.257222222222,30
232,199,images/INVk30.bmp,inverted,,,0.0,37.0,37.0,82.0,,,,,,,5.0,2.034,,,,,,,2016_Oct_24_1403,59.9081874302,Gestalt_exp1,1,7333,,30,0.0753787475476,0.257222222222,0.0753787475476,0.257222222222,30,0.0753787475476,0.257222222222,30
233,325,images/INVk30.bmp,inverted,,,0.0,2.0,2.0,82.0,,,,,,,2.0,3.052,,,,,,,2016_Oct_17_1508,59.7289465027,Gestalt_exp1,1,7576,,30,0.0753787475476,0.257222222222,0.0753787475476,0.257222222222,30,0.0753787475476,0.257222222222,30
234,489,images/INVk30.bmp,inverted,,,0.0,5.0,5.0,82.0,,,,,,,5.0,4.302,,,,,,,2016_May_03_1203,60.0146520147,Gestalt_exp1,1,9010,,30,0.0753787475476,0.257222222222,0.0753787475476,0.257222222222,30,0.0753787475476,0.257222222222,30
235,702,images/INVk30.bmp,inverted,,,0.0,57.0,57.0,82.0,,,,,,,6.0,1.669,,,,,,,2016_Sep_19_1511,59.8884276929,Gestalt_exp1,1,11485,,30,0.0753787475476,0.257222222222,0.0753787475476,0.257222222222,30,0.0753787475476,0.257222222222,30
236,816,images/INVk30.bmp,inverted,,,0.0,10.0,10.0,82.0,,,,,,,5.0,3.085,,,,,,,2016_Apr_15_1205,59.8039758064,Gestalt_exp1,1,11707,,30,0.0753787475476,0.257222222222,0.0753787475476,0.257222222222,30,0.0753787475476,0.257222222222,30
237,989,images/INVk30.bmp,inverted,,,0.0,22.0,22.0,82.0,,,,,,,5.0,1.452,,,,,,,2016_Apr_21_1606,59.9297583837,Gestalt_exp1,1,11755,,30,0.0753787475476,0.257222222222,0.0753787475476,0.257222222222,30,0.0753787475476,0.257222222222,30
238,1145,images/INVk30.bmp,inverted,,,0.0,17.0,17.0,82.0,,,,,,,5.0,2.151,,,,,,,2016_Sep_26_1705,59.9161463311,Gestalt_exp1,1,11758,,30,0.0753787475476,0.257222222222,0.0753787475476,0.257222222222,30,0.0753787475476,0.257222222222,30
239,1328,images/INVk30.bmp,inverted,,,0.0,39.0,39.0,82.0,,,,,,,6.0,1.485,,,,,,,2016_Oct_03_1406,59.8820149965,Gestalt_exp1,1,12139,,30,0.0753787475476,0.257222222222,0.0753787475476,0.257222222222,30,0.0753787475476,0.257222222222,30
240,1462,images/INVk30.bmp,inverted,,,0.0,12.0,12.0,82.0,,,,,,,2.0,3.235,,,,,,,2016_Aug_24_1710,59.9186285714,Gestalt_exp1,1,13105,,30,0.0753787475476,0.257222222222,0.0753787475476,0.257222222222,30,0.0753787475476,0.257222222222,30
241,1687,images/INVk30.bmp,inverted,,,0.0,76.0,76.0,82.0,,,,,,,5.0,1.368,,,,,,,2016_Apr_18_1709,59.9075028923,Gestalt_exp1,1,13201,,30,0.0753787475476,0.257222222222,0.0753787475476,0.257222222222,30,0.0753787475476,0.257222222222,30
242,1844,images/INVk30.bmp,inverted,,,0.0,72.0,72.0,82.0,,,,,,,8.0,1.769,,,,,,,2016_Oct_17_1105,59.9175158176,Gestalt_exp1,1,13831,,30,0.0753787475476,0.257222222222,0.0753787475476,0.257222222222,30,0.0753787475476,0.257222222222,30
243,1938,images/INVk30.bmp,inverted,,,0.0,5.0,5.0,82.0,,,,,,,5.0,2.135,,,,,,,2016_Oct_10_1504,59.8748344068,Gestalt_exp1,1,14596,,30,0.0753787475476,0.257222222222,0.0753787475476,0.257222222222,30,0.0753787475476,0.257222222222,30
244,2126,images/INVk30.bmp,inverted,,,0.0,32.0,32.0,82.0,,,,,,,6.0,2.668,,,,,,,2016_Sep_26_1208,59.9193133636,Gestalt_exp1,1,15643,,30,0.0753787475476,0.257222222222,0.0753787475476,0.257222222222,30,0.0753787475476,0.257222222222,30
245,2280,images/INVk30.bmp,inverted,,,0.0,25.0,25.0,82.0,,,,,,,5.0,1.436,,,,,,,2016_May_03_1106,59.9186285714,Gestalt_exp1,1,15928,,30,0.0753787475476,0.257222222222,0.0753787475476,0.257222222222,30,0.0753787475476,0.257222222222,30
246,2426,images/INVk30.bmp,inverted,,,0.0,10.0,10.0,82.0,,,,,,,5.0,3.852,,,,,,,2016_Apr_15_1406,60.0222097563,Gestalt_exp1,1,16522,,30,0.0753787475476,0.257222222222,0.0753787475476,0.257222222222,30,0.0753787475476,0.257222222222,30
247,2584,images/INVk30.bmp,inverted,,,0.0,7.0,7.0,82.0,,,,,,,6.0,2.285,,,,,,,2016_Apr_15_1507,59.7114299096,Gestalt_exp1,1,16891,,30,0.0753787475476,0.257222222222,0.0753787475476,0.257222222222,30,0.0753787475476,0.257222222222,30
248,2789,images/INVk30.bmp,inverted,,,0.0,51.0,51.0,82.0,,,,,,,5.0,1.218,,,,,,,2016_May_02_1508,59.6907803356,Gestalt_exp1,1,17959,,30,0.0753787475476,0.257222222222,0.0753787475476,0.257222222222,30,0.0753787475476,0.257222222222,30
249,2958,images/INVk30.bmp,inverted,,,0.0,59.0,59.0,82.0,,,,,,,5.0,2.169,,,,,,,2016_Apr_25_1505,59.9243641891,Gestalt_exp1,1,18019,,30,0.0753787475476,0.257222222222,0.0753787475476,0.257222222222,30,0.0753787475476,0.257222222222,30
250,3089,images/INVk30.bmp,inverted,,,0.0,29.0,29.0,82.0,,,,,,,6.0,2.152,,,,,,,2016_Apr_21_1005,59.7296269661,Gestalt_exp1,1,18445,,30,0.0753787475476,0.257222222222,0.0753787475476,0.257222222222,30,0.0753787475476,0.257222222222,30
251,3254,images/INVk30.bmp,inverted,,,0.0,33.0,33.0,82.0,,,,,,,4.0,1.802,,,,,,,2016_Aug_24_1628,59.9268471105,Gestalt_exp1,1,18460,,30,0.0753787475476,0.257222222222,0.0753787475476,0.257222222222,30,0.0753787475476,0.257222222222,30
252,3406,images/INVk30.bmp,inverted,,,0.0,24.0,24.0,82.0,,,,,,,4.0,1.753,,,,,,,2016_Apr_18_1405,59.9667733237,Gestalt_exp1,1,18913,,30,0.0753787475476,0.257222222222,0.0753787475476,0.257222222222,30,0.0753787475476,0.257222222222,30
253,3605,images/INVk30.bmp,inverted,,,0.0,62.0,62.0,82.0,,,,,,,2.0,1.553,,,,,,,2016_Apr_21_1208,60.2507825283,Gestalt_exp1,1,19201,,30,0.0753787475476,0.257222222222,0.0753787475476,0.257222222222,30,0.0753787475476,0.257222222222,30
254,3765,images/INVk30.bmp,inverted,,,0.0,61.0,61.0,82.0,,,,,,,5.0,2.552,,,,,,,2016_Apr_21_1103,59.9290733528,Gestalt_exp1,1,19873,,30,0.0753787475476,0.257222222222,0.0753787475476,0.257222222222,30,0.0753787475476,0.257222222222,30
255,3940,images/INVk30.bmp,inverted,,,0.0,75.0,75.0,82.0,,,,,,,5.0,0.968,,,,,,,2016_Apr_27_1412,59.9222239049,Gestalt_exp1,1,20353,,30,0.0753787475476,0.257222222222,0.0753787475476,0.257222222222,30,0.0753787475476,0.257222222222,30
256,4102,images/INVk30.bmp,inverted,,,0.0,76.0,76.0,82.0,,,,,,,6.0,0.935,,,,,,,2016_Apr_25_1609,59.9377230175,Gestalt_exp1,1,20395,,30,0.0753787475476,0.257222222222,0.0753787475476,0.257222222222,30,0.0753787475476,0.257222222222,30
257,4213,images/INVk30.bmp,inverted,,,0.0,26.0,26.0,82.0,,,,,,,6.0,1.469,,,,,,,2016_May_02_1605,59.9351535495,Gestalt_exp1,1,20404,,30,0.0753787475476,0.257222222222,0.0753787475476,0.257222222222,30,0.0753787475476,0.257222222222,30
258,4422,images/INVk30.bmp,inverted,,,0.0,74.0,74.0,82.0,,,,,,,9.0,1.235,,,,,,,2016_Apr_28_1503,59.9133219629,Gestalt_exp1,1,20467,,30,0.0753787475476,0.257222222222,0.0753787475476,0.257222222222,30,0.0753787475476,0.257222222222,30
259,4556,images/INVk30.bmp,inverted,,,0.0,47.0,47.0,82.0,,,,,,,3.0,1.536,,,,,,,2016_Apr_18_1604,59.9477460481,Gestalt_exp1,1,20650,,30,0.0753787475476,0.257222222222,0.0753787475476,0.257222222222,30,0.0753787475476,0.257222222222,30
260,4672,images/INVk30.bmp,inverted,,,0.0,2.0,2.0,82.0,,,,,,,2.0,2.82,,,,,,,2016_May_03_1507,59.9243641891,Gestalt_exp1,1,20755,,30,0.0753787475476,0.257222222222,0.0753787475476,0.257222222222,30,0.0753787475476,0.257222222222,30
261,4875,images/INVk30.bmp,inverted,,,0.0,44.0,44.0,82.0,,,,,,,6.0,1.068,,,,,,,2016_Apr_28_1404,59.7556663328,Gestalt_exp1,1,20803,,30,0.0753787475476,0.257222222222,0.0753787475476,0.257222222222,30,0.0753787475476,0.257222222222,30
262,5042,images/INVk30.bmp,inverted,,,0.0,50.0,50.0,82.0,,,,,,,5.0,1.501,,,,,,,2016_Apr_28_1007,59.9207685989,Gestalt_exp1,1,20959,,30,0.0753787475476,0.257222222222,0.0753787475476,0.257222222222,30,0.0753787475476,0.257222222222,30
263,5204,images/INVk30.bmp,inverted,,,0.0,51.0,51.0,82.0,,,,,,,5.0,1.952,,,,,,,2016_Oct_10_1709,59.9226519495,Gestalt_exp1,1,21055,,30,0.0753787475476,0.257222222222,0.0753787475476,0.257222222222,30,0.0753787475476,0.257222222222,30
264,5361,images/INVk30.bmp,inverted,,,0.0,47.0,47.0,82.0,,,,,,,4.0,1.335,,,,,,,2016_Apr_21_1508,59.9182861812,Gestalt_exp1,1,21064,,30,0.0753787475476,0.257222222222,0.0753787475476,0.257222222222,30,0.0753787475476,0.257222222222,30
265,5520,images/INVk30.bmp,inverted,,,0.0,45.0,45.0,82.0,,,,,,,6.0,1.302,,,,,,,2016_Apr_28_0910,59.91006999,Gestalt_exp1,1,21127,,30,0.0753787475476,0.257222222222,0.0753787475476,0.257222222222,30,0.0753787475476,0.257222222222,30
266,5664,images/INVk30.bmp,inverted,,,0.0,28.0,28.0,82.0,,,,,,,5.0,2.369,,,,,,,2016_Oct_03_1706,59.9135787127,Gestalt_exp1,1,21271,,30,0.0753787475476,0.257222222222,0.0753787475476,0.257222222222,30,0.0753787475476,0.257222222222,30
267,5867,images/INVk30.bmp,inverted,,,0.0,70.0,70.0,82.0,,,,,,,5.0,1.768,,,,,,,2016_Oct_10_1311,59.9078451593,Gestalt_exp1,1,21322,,30,0.0753787475476,0.257222222222,0.0753787475476,0.257222222222,30,0.0753787475476,0.257222222222,30
268,6010,images/INVk30.bmp,inverted,,,0.0,52.0,52.0,82.0,,,,,,,7.0,0.852,,,,,,,2016_Apr_25_1410,59.9193989637,Gestalt_exp1,1,21436,,30,0.0753787475476,0.257222222222,0.0753787475476,0.257222222222,30,0.0753787475476,0.257222222222,30
269,6194,images/INVk30.bmp,inverted,,,0.0,75.0,75.0,82.0,,,,,,,6.0,1.736,,,,,,,2016_May_03_1405,59.9272752211,Gestalt_exp1,1,21511,,30,0.0753787475476,0.257222222222,0.0753787475476,0.257222222222,30,0.0753787475476,0.257222222222,30
270,6339,images/INVk30.bmp,inverted,,,0.0,59.0,59.0,82.0,,,,,,,5.0,2.185,,,,,,,2016_May_03_0911,59.9214534399,Gestalt_exp1,1,21625,,30,0.0753787475476,0.257222222222,0.0753787475476,0.257222222222,30,0.0753787475476,0.257222222222,30
271,6496,images/INVk30.bmp,inverted,,,0.0,55.0,55.0,82.0,,,,,,,5.0,5.453,,,,,,,2016_Apr_15_1104,59.9215390462,Gestalt_exp1,1,21661,,30,0.0753787475476,0.257222222222,0.0753787475476,0.257222222222,30,0.0753787475476,0.257222222222,30
272,6632,images/INVk30.bmp,inverted,,,0.0,30.0,30.0,82.0,,,,,,,4.0,1.386,,,,,,,2016_Apr_27_1506,59.7303925059,Gestalt_exp1,1,21700,,30,0.0753787475476,0.257222222222,0.0753787475476,0.257222222222,30,0.0753787475476,0.257222222222,30
273,6843,images/INVk30.bmp,inverted,,,0.0,80.0,80.0,82.0,,,,,,,5.0,1.102,,,,,,,2016_Oct_17_1307,59.7253743245,Gestalt_exp1,1,22129,,30,0.0753787475476,0.257222222222,0.0753787475476,0.257222222222,30,0.0753787475476,0.257222222222,30
274,6959,images/INVk30.bmp,inverted,,,0.0,35.0,35.0,82.0,,,,,,,5.0,1.435,,,,,,,2016_Oct_10_1606,59.9369521539,Gestalt_exp1,1,22168,,30,0.0753787475476,0.257222222222,0.0753787475476,0.257222222222,30,0.0753787475476,0.257222222222,30
275,7130,images/INVk30.bmp,inverted,,,0.0,45.0,45.0,82.0,,,,,,,3.0,2.685,,,,,,,2016_Apr_21_0913,59.9258196698,Gestalt_exp1,1,22246,,30,0.0753787475476,0.257222222222,0.0753787475476,0.257222222222,30,0.0753787475476,0.257222222222,30
276,7304,images/INVk30.bmp,inverted,,,0.0,58.0,58.0,82.0,,,,,,,5.0,0.918,,,,,,,2016_Sep_26_1110,59.8731249964,Gestalt_exp1,1,22315,,30,0.0753787475476,0.257222222222,0.0753787475476,0.257222222222,30,0.0753787475476,0.257222222222,30
277,7411,images/INVk30.bmp,inverted,,,0.0,4.0,4.0,82.0,,,,,,,7.0,5.336,,,,,,,2016_Sep_26_1604,59.9215390462,Gestalt_exp1,1,22333,,30,0.0753787475476,0.257222222222,0.0753787475476,0.257222222222,30,0.0753787475476,0.257222222222,30
278,7639,images/INVk30.bmp,inverted,,,0.0,71.0,71.0,82.0,,,,,,,6.0,2.502,,,,,,,2016_Apr_15_0910,59.9110968907,Gestalt_exp1,1,22339,,30,0.0753787475476,0.257222222222,0.0753787475476,0.257222222222,30,0.0753787475476,0.257222222222,30
279,7764,images/INVk30.bmp,inverted,,,0.0,35.0,35.0,82.0,,,,,,,5.0,2.485,,,,,,,2016_May_02_1406,59.9117815107,Gestalt_exp1,1,22567,,30,0.0753787475476,0.257222222222,0.0753787475476,0.257222222222,30,0.0753787475476,0.257222222222,30
280,7912,images/INVk30.bmp,inverted,,,0.0,22.0,22.0,82.0,,,,,,,7.0,1.385,,,,,,,2016_Apr_15_1316,59.9229087792,Gestalt_exp1,1,22681,,30,0.0753787475476,0.257222222222,0.0753787475476,0.257222222222,30,0.0753787475476,0.257222222222,30
281,8113,images/INVk30.bmp,inverted,,,0.0,62.0,62.0,82.0,,,,,,,4.0,6.785,,,,,,,2016_Apr_18_1505,59.9215390462,Gestalt_exp1,1,22819,,30,0.0753787475476,0.257222222222,0.0753787475476,0.257222222222,30,0.0753787475476,0.257222222222,30
282,8272,images/INVk30.bmp,inverted,,,0.0,60.0,60.0,82.0,,,,,,,4.0,1.319,,,,,,,2016_Oct_17_1210,59.9243641891,Gestalt_exp1,1,22987,,30,0.0753787475476,0.257222222222,0.0753787475476,0.257222222222,30,0.0753787475476,0.257222222222,30
283,8442,images/INVk30.bmp,inverted,,,0.0,69.0,69.0,82.0,,,,,,,5.0,1.151,,,,,,,2016_Apr_25_1714,59.9520304169,Gestalt_exp1,1,23068,,30,0.0753787475476,0.257222222222,0.0753787475476,0.257222222222,30,0.0753787475476,0.257222222222,30
284,8591,images/INVk30.bmp,inverted,,,0.0,57.0,57.0,82.0,,,,,,,6.0,1.702,,,,,,,2016_Apr_28_1203,59.917858199,Gestalt_exp1,1,23086,,30,0.0753787475476,0.257222222222,0.0753787475476,0.257222222222,30,0.0753787475476,0.257222222222,30
285,8723,images/INVk30.bmp,inverted,,,0.0,28.0,28.0,82.0,,,,,,,2.0,1.702,,,,,,,2016_May_04_1404,59.9031393311,Gestalt_exp1,1,23125,,30,0.0753787475476,0.257222222222,0.0753787475476,0.257222222222,30,0.0753787475476,0.257222222222,30
286,8936,images/INVk30.bmp,inverted,,,0.0,80.0,80.0,82.0,,,,,,,3.0,1.735,,,,,,,2016_May_03_1309,59.9276177141,Gestalt_exp1,1,23143,,30,0.0753787475476,0.257222222222,0.0753787475476,0.257222222222,30,0.0753787475476,0.257222222222,30
287,9045,images/INVk30.bmp,inverted,,,0.0,28.0,28.0,82.0,,,,,,,4.0,2.769,,,,,,,2016_Aug_24_1146,59.9168310665,Gestalt_exp1,1,23713,,30,0.0753787475476,0.257222222222,0.0753787475476,0.257222222222,30,0.0753787475476,0.257222222222,30
288,9178,images/INVk30.bmp,inverted,,,0.0,0.0,0.0,82.0,,,,,,,1.0,7.735,,,,,,,2016_Oct_03_1507,59.9208542032,Gestalt_exp1,1,23767,,30,0.0753787475476,0.257222222222,0.0753787475476,0.257222222222,30,0.0753787475476,0.257222222222,30
289,9401,images/INVk30.bmp,inverted,,,0.0,62.0,62.0,82.0,,,,,,,4.0,1.352,,,,,,,2016_Sep_26_0916,60.0066669242,Gestalt_exp1,1,23800,,30,0.0753787475476,0.257222222222,0.0753787475476,0.257222222222,30,0.0753787475476,0.257222222222,30
290,9567,images/INVk30.bmp,inverted,,,0.0,67.0,67.0,82.0,,,,,,,5.0,2.351,,,,,,,2016_Oct_03_1558,59.9240217334,Gestalt_exp1,1,23854,,30,0.0753787475476,0.257222222222,0.0753787475476,0.257222222222,30,0.0753787475476,0.257222222222,30
291,9722,images/INVk30.bmp,inverted,,,0.0,61.0,61.0,82.0,,,,,,,2.0,1.985,,,,,,,2016_Sep_19_1307,59.9444903373,Gestalt_exp1,1,23878,,30,0.0753787475476,0.257222222222,0.0753787475476,0.257222222222,30,0.0753787475476,0.257222222222,30
292,9888,images/INVk30.bmp,inverted,,,0.0,66.0,66.0,82.0,,,,,,,7.0,1.902,,,,,,,2016_Sep_26_1508,59.9207685989,Gestalt_exp1,1,23926,,30,0.0753787475476,0.257222222222,0.0753787475476,0.257222222222,30,0.0753787475476,0.257222222222,30
293,10042,images/INVk30.bmp,inverted,,,0.0,59.0,59.0,82.0,,,,,,,5.0,1.452,,,,,,,2016_Oct_17_1407,59.7424736206,Gestalt_exp1,1,23950,,30,0.0753787475476,0.257222222222,0.0753787475476,0.257222222222,30,0.0753787475476,0.257222222222,30
294,10146,images/INVk30.bmp,inverted,,,0.0,2.0,2.0,82.0,,,,,,,4.0,2.736,,,,,,,2016_Oct_10_0910,59.9182861812,Gestalt_exp1,1,23956,,30,0.0753787475476,0.257222222222,0.0753787475476,0.257222222222,30,0.0753787475476,0.257222222222,30
295,10379,images/INVk30.bmp,inverted,,,0.0,74.0,74.0,82.0,,,,,,,6.0,1.719,,,,,,,2016_Oct_10_1407,59.8974933131,Gestalt_exp1,1,23962,,30,0.0753787475476,0.257222222222,0.0753787475476,0.257222222222,30,0.0753787475476,0.257222222222,30
296,10524,images/INVk30.bmp,inverted,,,0.0,58.0,58.0,82.0,,,,,,,6.0,3.002,,,,,,,2016_Oct_24_1504,59.917858199,Gestalt_exp1,1,23986,,30,0.0753787475476,0.257222222222,0.0753787475476,0.257222222222,30,0.0753787475476,0.257222222222,30
297,10686,images/INVk30.bmp,inverted,,,0.0,59.0,59.0,82.0,,,,,,,7.0,1.736,,,,,,,2016_Oct_17_1612,59.928987725,Gestalt_exp1,1,24154,,30,0.0753787475476,0.257222222222,0.0753787475476,0.257222222222,30,0.0753787475476,0.257222222222,30
298,10848,images/INVk30.bmp,inverted,,,0.0,60.0,60.0,82.0,,,,,,,5.0,1.069,,,,,,,2016_Oct_17_0910,59.9050215737,Gestalt_exp1,1,24205,,30,0.0753787475476,0.257222222222,0.0753787475476,0.257222222222,30,0.0753787475476,0.257222222222,30
299,10953,images/INVk30.bmp,inverted,,,0.0,4.0,4.0,82.0,,,,,,,4.0,2.969,,,,,,,2016_Oct_10_1205,59.7263949033,Gestalt_exp1,1,24208,,30,0.0753787475476,0.257222222222,0.0753787475476,0.257222222222,30,0.0753787475476,0.257222222222,30
300,11128,images/INVk30.bmp,inverted,,,0.0,18.0,18.0,82.0,,,,,,,5.0,1.668,,,,,,,2016_Oct_17_1709,59.9092998376,Gestalt_exp1,1,24331,,30,0.0753787475476,0.257222222222,0.0753787475476,0.257222222222,30,0.0753787475476,0.257222222222,30
301,11352,images/INVk30.bmp,inverted,,,0.0,81.0,81.0,82.0,,,,,,,4.0,4.935,,,,,,,2016_Oct_24_1105,59.9243641891,Gestalt_exp1,1,24355,,30,0.0753787475476,0.257222222222,0.0753787475476,0.257222222222,30,0.0753787475476,0.257222222222,30
302,11497,images/INVk30.bmp,inverted,,,0.0,65.0,65.0,82.0,,,,,,,7.0,1.969,,,,,,,2016_Oct_24_1209,59.9204261842,Gestalt_exp1,1,24394,,30,0.0753787475476,0.257222222222,0.0753787475476,0.257222222222,30,0.0753787475476,0.257222222222,30
303,11614,images/INVk30.bmp,inverted,,,0.0,21.0,21.0,82.0,,,,,,,5.0,9.636,,,,,,,2016_Oct_24_1011,59.728181,Gestalt_exp1,1,24679,,30,0.0753787475476,0.257222222222,0.0753787475476,0.257222222222,30,0.0753787475476,0.257222222222,30
304,11822,images/INVk30.bmp,inverted,,,0.0,68.0,68.0,82.0,,,,,,,6.0,1.985,,,,,,,2016_Oct_24_0919,59.9024549086,Gestalt_exp1,1,24814,,30,0.0753787475476,0.257222222222,0.0753787475476,0.257222222222,30,0.0753787475476,0.257222222222,30
305,11946,images/INVk30.bmp,inverted,,,0.0,31.0,31.0,82.0,,,,,,,5.0,1.87,,,,,,,2016_Oct_24_1605,59.9218814736,Gestalt_exp1,1,25255,,30,0.0753787475476,0.257222222222,0.0753787475476,0.257222222222,30,0.0753787475476,0.257222222222,30
306,12152,images/INVk30.bmp,inverted,,,0.0,76.0,76.0,82.0,,,,,,,5.0,2.002,,,,,,,2016_Oct_24_1707,59.9232512222,Gestalt_exp1,1,25273,,30,0.0753787475476,0.257222222222,0.0753787475476,0.257222222222,30,0.0753787475476,0.257222222222,30
307,12302,images/INVk30.bmp,inverted,,,0.0,65.0,65.0,82.0,,,,,,,3.0,1.668,,,,,,,2016_Oct_24_1308,59.9179437949,Gestalt_exp1,1,25306,,30,0.0753787475476,0.257222222222,0.0753787475476,0.257222222222,30,0.0753787475476,0.257222222222,30
308,5,images/k23.bmp,gestalt,,,0.0,4.0,4.0,22.0,,,,,,,3.0,3.102,,,,,,,2016_Oct_17_1007,59.9207685989,Gestalt_exp1,1,5635,,23,0.0380221297479,0.447044444444,0.0380221297479,0.447044444444,23,0.0380221297479,0.447044444444,23
309,232,images/k23.bmp,gestalt,,,0.0,70.0,70.0,22.0,,,,,,,5.0,1.534,,,,,,,2016_Oct_24_1403,59.9081874302,Gestalt_exp1,1,7333,,23,0.0380221297479,0.447044444444,0.0380221297479,0.447044444444,23,0.0380221297479,0.447044444444,23
310,366,images/k23.bmp,gestalt,,,0.0,43.0,43.0,22.0,,,,,,,2.0,0.919,,,,,,,2016_Oct_17_1508,59.7289465027,Gestalt_exp1,1,7576,,23,0.0380221297479,0.447044444444,0.0380221297479,0.447044444444,23,0.0380221297479,0.447044444444,23
311,513,images/k23.bmp,gestalt,,,0.0,29.0,29.0,22.0,,,,,,,5.0,1.636,,,,,,,2016_May_03_1203,60.0146520147,Gestalt_exp1,1,9010,,23,0.0380221297479,0.447044444444,0.0380221297479,0.447044444444,23,0.0380221297479,0.447044444444,23
312,653,images/k23.bmp,gestalt,,,0.0,8.0,8.0,22.0,,,,,,,5.0,1.92,,,,,,,2016_Sep_19_1511,59.8884276929,Gestalt_exp1,1,11485,,23,0.0380221297479,0.447044444444,0.0380221297479,0.447044444444,23,0.0380221297479,0.447044444444,23
313,841,images/k23.bmp,gestalt,,,0.0,35.0,35.0,22.0,,,,,,,5.0,1.802,,,,,,,2016_Apr_15_1205,59.8039758064,Gestalt_exp1,1,11707,,23,0.0380221297479,0.447044444444,0.0380221297479,0.447044444444,23,0.0380221297479,0.447044444444,23
314,1025,images/k23.bmp,gestalt,,,0.0,58.0,58.0,22.0,,,,,,,2.0,1.552,,,,,,,2016_Apr_21_1606,59.9297583837,Gestalt_exp1,1,11755,,23,0.0380221297479,0.447044444444,0.0380221297479,0.447044444444,23,0.0380221297479,0.447044444444,23
315,1133,images/k23.bmp,gestalt,,,0.0,5.0,5.0,22.0,,,,,,,2.0,2.818,,,,,,,2016_Sep_26_1705,59.9161463311,Gestalt_exp1,1,11758,,23,0.0380221297479,0.447044444444,0.0380221297479,0.447044444444,23,0.0380221297479,0.447044444444,23
316,1371,images/k23.bmp,gestalt,,,0.0,82.0,82.0,22.0,,,,,,,1.0,1.018,,,,,,,2016_Oct_03_1406,59.8820149965,Gestalt_exp1,1,12139,,23,0.0380221297479,0.447044444444,0.0380221297479,0.447044444444,23,0.0380221297479,0.447044444444,23
317,1497,images/k23.bmp,gestalt,,,0.0,47.0,47.0,22.0,,,,,,,8.0,1.752,,,,,,,2016_Aug_24_1710,59.9186285714,Gestalt_exp1,1,13105,,23,0.0380221297479,0.447044444444,0.0380221297479,0.447044444444,23,0.0380221297479,0.447044444444,23
318,1615,images/k23.bmp,gestalt,,,0.0,4.0,4.0,22.0,,,,,,,3.0,3.202,,,,,,,2016_Apr_18_1709,59.9075028923,Gestalt_exp1,1,13201,,23,0.0380221297479,0.447044444444,0.0380221297479,0.447044444444,23,0.0380221297479,0.447044444444,23
319,1784,images/k23.bmp,gestalt,,,0.0,12.0,12.0,22.0,,,,,,,7.0,3.685,,,,,,,2016_Oct_17_1105,59.9175158176,Gestalt_exp1,1,13831,,23,0.0380221297479,0.447044444444,0.0380221297479,0.447044444444,23,0.0380221297479,0.447044444444,23
320,2011,images/k23.bmp,gestalt,,,0.0,78.0,78.0,22.0,,,,,,,6.0,1.502,,,,,,,2016_Oct_10_1504,59.8748344068,Gestalt_exp1,1,14596,,23,0.0380221297479,0.447044444444,0.0380221297479,0.447044444444,23,0.0380221297479,0.447044444444,23
321,2171,images/k23.bmp,gestalt,,,0.0,77.0,77.0,22.0,,,,,,,4.0,3.419,,,,,,,2016_Sep_26_1208,59.9193133636,Gestalt_exp1,1,15643,,23,0.0380221297479,0.447044444444,0.0380221297479,0.447044444444,23,0.0380221297479,0.447044444444,23
322,2265,images/k23.bmp,gestalt,,,0.0,10.0,10.0,22.0,,,,,,,5.0,1.936,,,,,,,2016_May_03_1106,59.9186285714,Gestalt_exp1,1,15928,,23,0.0380221297479,0.447044444444,0.0380221297479,0.447044444444,23,0.0380221297479,0.447044444444,23
323,2474,images/k23.bmp,gestalt,,,0.0,58.0,58.0,22.0,,,,,,,4.0,1.369,,,,,,,2016_Apr_15_1406,60.0222097563,Gestalt_exp1,1,16522,,23,0.0380221297479,0.447044444444,0.0380221297479,0.447044444444,23,0.0380221297479,0.447044444444,23
324,2615,images/k23.bmp,gestalt,,,0.0,38.0,38.0,22.0,,,,,,,6.0,1.668,,,,,,,2016_Apr_15_1507,59.7114299096,Gestalt_exp1,1,16891,,23,0.0380221297479,0.447044444444,0.0380221297479,0.447044444444,23,0.0380221297479,0.447044444444,23
325,2769,images/k23.bmp,gestalt,,,0.0,31.0,31.0,22.0,,,,,,,5.0,1.202,,,,,,,2016_May_02_1508,59.6907803356,Gestalt_exp1,1,17959,,23,0.0380221297479,0.447044444444,0.0380221297479,0.447044444444,23,0.0380221297479,0.447044444444,23
326,2980,images/k23.bmp,gestalt,,,0.0,81.0,81.0,22.0,,,,,,,2.0,3.702,,,,,,,2016_Apr_25_1505,59.9243641891,Gestalt_exp1,1,18019,,23,0.0380221297479,0.447044444444,0.0380221297479,0.447044444444,23,0.0380221297479,0.447044444444,23
327,3100,images/k23.bmp,gestalt,,,0.0,40.0,40.0,22.0,,,,,,,6.0,1.769,,,,,,,2016_Apr_21_1005,59.7296269661,Gestalt_exp1,1,18445,,23,0.0380221297479,0.447044444444,0.0380221297479,0.447044444444,23,0.0380221297479,0.447044444444,23
328,3270,images/k23.bmp,gestalt,,,0.0,49.0,49.0,22.0,,,,,,,5.0,1.702,,,,,,,2016_Aug_24_1628,59.9268471105,Gestalt_exp1,1,18460,,23,0.0380221297479,0.447044444444,0.0380221297479,0.447044444444,23,0.0380221297479,0.447044444444,23
329,3394,images/k23.bmp,gestalt,,,0.0,12.0,12.0,22.0,,,,,,,4.0,2.035,,,,,,,2016_Apr_18_1405,59.9667733237,Gestalt_exp1,1,18913,,23,0.0380221297479,0.447044444444,0.0380221297479,0.447044444444,23,0.0380221297479,0.447044444444,23
330,3613,images/k23.bmp,gestalt,,,0.0,70.0,70.0,22.0,,,,,,,4.0,1.119,,,,,,,2016_Apr_21_1208,60.2507825283,Gestalt_exp1,1,19201,,23,0.0380221297479,0.447044444444,0.0380221297479,0.447044444444,23,0.0380221297479,0.447044444444,23
331,3742,images/k23.bmp,gestalt,,,0.0,38.0,38.0,22.0,,,,,,,5.0,2.136,,,,,,,2016_Apr_21_1103,59.9290733528,Gestalt_exp1,1,19873,,23,0.0380221297479,0.447044444444,0.0380221297479,0.447044444444,23,0.0380221297479,0.447044444444,23
332,3939,images/k23.bmp,gestalt,,,0.0,74.0,74.0,22.0,,,,,,,5.0,1.202,,,,,,,2016_Apr_27_1412,59.9222239049,Gestalt_exp1,1,20353,,23,0.0380221297479,0.447044444444,0.0380221297479,0.447044444444,23,0.0380221297479,0.447044444444,23
333,4077,images/k23.bmp,gestalt,,,0.0,51.0,51.0,22.0,,,,,,,4.0,1.586,,,,,,,2016_Apr_25_1609,59.9377230175,Gestalt_exp1,1,20395,,23,0.0380221297479,0.447044444444,0.0380221297479,0.447044444444,23,0.0380221297479,0.447044444444,23
334,4236,images/k23.bmp,gestalt,,,0.0,49.0,49.0,22.0,,,,,,,6.0,1.585,,,,,,,2016_May_02_1605,59.9351535495,Gestalt_exp1,1,20404,,23,0.0380221297479,0.447044444444,0.0380221297479,0.447044444444,23,0.0380221297479,0.447044444444,23
335,4407,images/k23.bmp,gestalt,,,0.0,59.0,59.0,22.0,,,,,,,9.0,1.203,,,,,,,2016_Apr_28_1503,59.9133219629,Gestalt_exp1,1,20467,,23,0.0380221297479,0.447044444444,0.0380221297479,0.447044444444,23,0.0380221297479,0.447044444444,23
336,4571,images/k23.bmp,gestalt,,,0.0,62.0,62.0,22.0,,,,,,,7.0,1.387,,,,,,,2016_Apr_18_1604,59.9477460481,Gestalt_exp1,1,20650,,23,0.0380221297479,0.447044444444,0.0380221297479,0.447044444444,23,0.0380221297479,0.447044444444,23
337,4671,images/k23.bmp,gestalt,,,0.0,1.0,1.0,22.0,,,,,,,2.0,3.835,,,,,,,2016_May_03_1507,59.9243641891,Gestalt_exp1,1,20755,,23,0.0380221297479,0.447044444444,0.0380221297479,0.447044444444,23,0.0380221297479,0.447044444444,23
338,4876,images/k23.bmp,gestalt,,,0.0,45.0,45.0,22.0,,,,,,,3.0,1.552,,,,,,,2016_Apr_28_1404,59.7556663328,Gestalt_exp1,1,20803,,23,0.0380221297479,0.447044444444,0.0380221297479,0.447044444444,23,0.0380221297479,0.447044444444,23
339,5008,images/k23.bmp,gestalt,,,0.0,16.0,16.0,22.0,,,,,,,5.0,1.869,,,,,,,2016_Apr_28_1007,59.9207685989,Gestalt_exp1,1,20959,,23,0.0380221297479,0.447044444444,0.0380221297479,0.447044444444,23,0.0380221297479,0.447044444444,23
340,5193,images/k23.bmp,gestalt,,,0.0,40.0,40.0,22.0,,,,,,,7.0,1.852,,,,,,,2016_Oct_10_1709,59.9226519495,Gestalt_exp1,1,21055,,23,0.0380221297479,0.447044444444,0.0380221297479,0.447044444444,23,0.0380221297479,0.447044444444,23
341,5333,images/k23.bmp,gestalt,,,0.0,19.0,19.0,22.0,,,,,,,5.0,2.235,,,,,,,2016_Apr_21_1508,59.9182861812,Gestalt_exp1,1,21064,,23,0.0380221297479,0.447044444444,0.0380221297479,0.447044444444,23,0.0380221297479,0.447044444444,23
342,5502,images/k23.bmp,gestalt,,,0.0,27.0,27.0,22.0,,,,,,,4.0,1.435,,,,,,,2016_Apr_28_0910,59.91006999,Gestalt_exp1,1,21127,,23,0.0380221297479,0.447044444444,0.0380221297479,0.447044444444,23,0.0380221297479,0.447044444444,23
343,5704,images/k23.bmp,gestalt,,,0.0,68.0,68.0,22.0,,,,,,,5.0,2.019,,,,,,,2016_Oct_03_1706,59.9135787127,Gestalt_exp1,1,21271,,23,0.0380221297479,0.447044444444,0.0380221297479,0.447044444444,23,0.0380221297479,0.447044444444,23
344,5855,images/k23.bmp,gestalt,,,0.0,58.0,58.0,22.0,,,,,,,4.0,1.868,,,,,,,2016_Oct_10_1311,59.9078451593,Gestalt_exp1,1,21322,,23,0.0380221297479,0.447044444444,0.0380221297479,0.447044444444,23,0.0380221297479,0.447044444444,23
345,6020,images/k23.bmp,gestalt,,,0.0,62.0,62.0,22.0,,,,,,,7.0,0.868,,,,,,,2016_Apr_25_1410,59.9193989637,Gestalt_exp1,1,21436,,23,0.0380221297479,0.447044444444,0.0380221297479,0.447044444444,23,0.0380221297479,0.447044444444,23
346,6138,images/k23.bmp,gestalt,,,0.0,19.0,19.0,22.0,,,,,,,4.0,1.67,,,,,,,2016_May_03_1405,59.9272752211,Gestalt_exp1,1,21511,,23,0.0380221297479,0.447044444444,0.0380221297479,0.447044444444,23,0.0380221297479,0.447044444444,23
347,6343,images/k23.bmp,gestalt,,,0.0,63.0,63.0,22.0,,,,,,,7.0,1.602,,,,,,,2016_May_03_0911,59.9214534399,Gestalt_exp1,1,21625,,23,0.0380221297479,0.447044444444,0.0380221297479,0.447044444444,23,0.0380221297479,0.447044444444,23
348,6457,images/k23.bmp,gestalt,,,0.0,16.0,16.0,22.0,,,,,,,5.0,3.802,,,,,,,2016_Apr_15_1104,59.9215390462,Gestalt_exp1,1,21661,,23,0.0380221297479,0.447044444444,0.0380221297479,0.447044444444,23,0.0380221297479,0.447044444444,23
349,6628,images/k23.bmp,gestalt,,,0.0,26.0,26.0,22.0,,,,,,,3.0,1.335,,,,,,,2016_Apr_27_1506,59.7303925059,Gestalt_exp1,1,21700,,23,0.0380221297479,0.447044444444,0.0380221297479,0.447044444444,23,0.0380221297479,0.447044444444,23
350,6824,images/k23.bmp,gestalt,,,0.0,61.0,61.0,22.0,,,,,,,5.0,1.202,,,,,,,2016_Oct_17_1307,59.7253743245,Gestalt_exp1,1,22129,,23,0.0380221297479,0.447044444444,0.0380221297479,0.447044444444,23,0.0380221297479,0.447044444444,23
351,6936,images/k23.bmp,gestalt,,,0.0,12.0,12.0,22.0,,,,,,,5.0,1.452,,,,,,,2016_Oct_10_1606,59.9369521539,Gestalt_exp1,1,22168,,23,0.0380221297479,0.447044444444,0.0380221297479,0.447044444444,23,0.0380221297479,0.447044444444,23
352,7155,images/k23.bmp,gestalt,,,0.0,70.0,70.0,22.0,,,,,,,4.0,2.219,,,,,,,2016_Apr_21_0913,59.9258196698,Gestalt_exp1,1,22246,,23,0.0380221297479,0.447044444444,0.0380221297479,0.447044444444,23,0.0380221297479,0.447044444444,23
353,7256,images/k23.bmp,gestalt,,,0.0,10.0,10.0,22.0,,,,,,,5.0,2.336,,,,,,,2016_Sep_26_1110,59.8731249964,Gestalt_exp1,1,22315,,23,0.0380221297479,0.447044444444,0.0380221297479,0.447044444444,23,0.0380221297479,0.447044444444,23
354,7472,images/k23.bmp,gestalt,,,0.0,65.0,65.0,22.0,,,,,,,5.0,2.085,,,,,,,2016_Sep_26_1604,59.9215390462,Gestalt_exp1,1,22333,,23,0.0380221297479,0.447044444444,0.0380221297479,0.447044444444,23,0.0380221297479,0.447044444444,23
355,7596,images/k23.bmp,gestalt,,,0.0,28.0,28.0,22.0,,,,,,,6.0,2.669,,,,,,,2016_Apr_15_0910,59.9110968907,Gestalt_exp1,1,22339,,23,0.0380221297479,0.447044444444,0.0380221297479,0.447044444444,23,0.0380221297479,0.447044444444,23
356,7759,images/k23.bmp,gestalt,,,0.0,30.0,30.0,22.0,,,,,,,5.0,1.185,,,,,,,2016_May_02_1406,59.9117815107,Gestalt_exp1,1,22567,,23,0.0380221297479,0.447044444444,0.0380221297479,0.447044444444,23,0.0380221297479,0.447044444444,23
357,7903,images/k23.bmp,gestalt,,,0.0,13.0,13.0,22.0,,,,,,,6.0,1.785,,,,,,,2016_Apr_15_1316,59.9229087792,Gestalt_exp1,1,22681,,23,0.0380221297479,0.447044444444,0.0380221297479,0.447044444444,23,0.0380221297479,0.447044444444,23
358,8104,images/k23.bmp,gestalt,,,0.0,53.0,53.0,22.0,,,,,,,5.0,1.669,,,,,,,2016_Apr_18_1505,59.9215390462,Gestalt_exp1,1,22819,,23,0.0380221297479,0.447044444444,0.0380221297479,0.447044444444,23,0.0380221297479,0.447044444444,23
359,8238,images/k23.bmp,gestalt,,,0.0,26.0,26.0,22.0,,,,,,,2.0,1.618,,,,,,,2016_Oct_17_1210,59.9243641891,Gestalt_exp1,1,22987,,23,0.0380221297479,0.447044444444,0.0380221297479,0.447044444444,23,0.0380221297479,0.447044444444,23
360,8373,images/k23.bmp,gestalt,,,0.0,0.0,0.0,22.0,,,,,,,4.0,8.552,,,,,,,2016_Apr_25_1714,59.9520304169,Gestalt_exp1,1,23068,,23,0.0380221297479,0.447044444444,0.0380221297479,0.447044444444,23,0.0380221297479,0.447044444444,23
361,8584,images/k23.bmp,gestalt,,,0.0,50.0,50.0,22.0,,,,,,,2.0,2.052,,,,,,,2016_Apr_28_1203,59.917858199,Gestalt_exp1,1,23086,,23,0.0380221297479,0.447044444444,0.0380221297479,0.447044444444,23,0.0380221297479,0.447044444444,23
362,8765,images/k23.bmp,gestalt,,,0.0,70.0,70.0,22.0,,,,,,,5.0,2.169,,,,,,,2016_May_04_1404,59.9031393311,Gestalt_exp1,1,23125,,23,0.0380221297479,0.447044444444,0.0380221297479,0.447044444444,23,0.0380221297479,0.447044444444,23
363,8885,images/k23.bmp,gestalt,,,0.0,29.0,29.0,22.0,,,,,,,5.0,1.635,,,,,,,2016_May_03_1309,59.9276177141,Gestalt_exp1,1,23143,,23,0.0380221297479,0.447044444444,0.0380221297479,0.447044444444,23,0.0380221297479,0.447044444444,23
364,9026,images/k23.bmp,gestalt,,,0.0,9.0,9.0,22.0,,,,,,,2.0,2.503,,,,,,,2016_Aug_24_1146,59.9168310665,Gestalt_exp1,1,23713,,23,0.0380221297479,0.447044444444,0.0380221297479,0.447044444444,23,0.0380221297479,0.447044444444,23
365,9207,images/k23.bmp,gestalt,,,0.0,29.0,29.0,22.0,,,,,,,4.0,1.736,,,,,,,2016_Oct_03_1507,59.9208542032,Gestalt_exp1,1,23767,,23,0.0380221297479,0.447044444444,0.0380221297479,0.447044444444,23,0.0380221297479,0.447044444444,23
366,9388,images/k23.bmp,gestalt,,,0.0,49.0,49.0,22.0,,,,,,,4.0,2.02,,,,,,,2016_Sep_26_0916,60.0066669242,Gestalt_exp1,1,23800,,23,0.0380221297479,0.447044444444,0.0380221297479,0.447044444444,23,0.0380221297479,0.447044444444,23
367,9569,images/k23.bmp,gestalt,,,0.0,69.0,69.0,22.0,,,,,,,5.0,1.185,,,,,,,2016_Oct_03_1558,59.9240217334,Gestalt_exp1,1,23854,,23,0.0380221297479,0.447044444444,0.0380221297479,0.447044444444,23,0.0380221297479,0.447044444444,23
368,9710,images/k23.bmp,gestalt,,,0.0,49.0,49.0,22.0,,,,,,,2.0,1.902,,,,,,,2016_Sep_19_1307,59.9444903373,Gestalt_exp1,1,23878,,23,0.0380221297479,0.447044444444,0.0380221297479,0.447044444444,23,0.0380221297479,0.447044444444,23
369,9842,images/k23.bmp,gestalt,,,0.0,20.0,20.0,22.0,,,,,,,5.0,1.668,,,,,,,2016_Sep_26_1508,59.9207685989,Gestalt_exp1,1,23926,,23,0.0380221297479,0.447044444444,0.0380221297479,0.447044444444,23,0.0380221297479,0.447044444444,23
370,10028,images/k23.bmp,gestalt,,,0.0,45.0,45.0,22.0,,,,,,,5.0,1.334,,,,,,,2016_Oct_17_1407,59.7424736206,Gestalt_exp1,1,23950,,23,0.0380221297479,0.447044444444,0.0380221297479,0.447044444444,23,0.0380221297479,0.447044444444,23
371,10152,images/k23.bmp,gestalt,,,0.0,8.0,8.0,22.0,,,,,,,6.0,2.134,,,,,,,2016_Oct_10_0910,59.9182861812,Gestalt_exp1,1,23956,,23,0.0380221297479,0.447044444444,0.0380221297479,0.447044444444,23,0.0380221297479,0.447044444444,23
372,10326,images/k23.bmp,gestalt,,,0.0,21.0,21.0,22.0,,,,,,,5.0,2.585,,,,,,,2016_Oct_10_1407,59.8974933131,Gestalt_exp1,1,23962,,23,0.0380221297479,0.447044444444,0.0380221297479,0.447044444444,23,0.0380221297479,0.447044444444,23
373,10469,images/k23.bmp,gestalt,,,0.0,3.0,3.0,22.0,,,,,,,6.0,2.702,,,,,,,2016_Oct_24_1504,59.917858199,Gestalt_exp1,1,23986,,23,0.0380221297479,0.447044444444,0.0380221297479,0.447044444444,23,0.0380221297479,0.447044444444,23
374,10708,images/k23.bmp,gestalt,,,0.0,81.0,81.0,22.0,,,,,,,6.0,1.752,,,,,,,2016_Oct_17_1612,59.928987725,Gestalt_exp1,1,24154,,23,0.0380221297479,0.447044444444,0.0380221297479,0.447044444444,23,0.0380221297479,0.447044444444,23
375,10861,images/k23.bmp,gestalt,,,0.0,73.0,73.0,22.0,,,,,,,5.0,0.852,,,,,,,2016_Oct_17_0910,59.9050215737,Gestalt_exp1,1,24205,,23,0.0380221297479,0.447044444444,0.0380221297479,0.447044444444,23,0.0380221297479,0.447044444444,23
376,11003,images/k23.bmp,gestalt,,,0.0,54.0,54.0,22.0,,,,,,,6.0,1.619,,,,,,,2016_Oct_10_1205,59.7263949033,Gestalt_exp1,1,24208,,23,0.0380221297479,0.447044444444,0.0380221297479,0.447044444444,23,0.0380221297479,0.447044444444,23
377,11122,images/k23.bmp,gestalt,,,0.0,12.0,12.0,22.0,,,,,,,5.0,1.736,,,,,,,2016_Oct_17_1709,59.9092998376,Gestalt_exp1,1,24331,,23,0.0380221297479,0.447044444444,0.0380221297479,0.447044444444,23,0.0380221297479,0.447044444444,23
378,11284,images/k23.bmp,gestalt,,,0.0,13.0,13.0,22.0,,,,,,,2.0,3.634,,,,,,,2016_Oct_24_1105,59.9243641891,Gestalt_exp1,1,24355,,23,0.0380221297479,0.447044444444,0.0380221297479,0.447044444444,23,0.0380221297479,0.447044444444,23
379,11443,images/k23.bmp,gestalt,,,0.0,11.0,11.0,22.0,,,,,,,6.0,3.185,,,,,,,2016_Oct_24_1209,59.9204261842,Gestalt_exp1,1,24394,,23,0.0380221297479,0.447044444444,0.0380221297479,0.447044444444,23,0.0380221297479,0.447044444444,23
380,11651,images/k23.bmp,gestalt,,,0.0,58.0,58.0,22.0,,,,,,,5.0,1.019,,,,,,,2016_Oct_24_1011,59.728181,Gestalt_exp1,1,24679,,23,0.0380221297479,0.447044444444,0.0380221297479,0.447044444444,23,0.0380221297479,0.447044444444,23
381,11805,images/k23.bmp,gestalt,,,0.0,51.0,51.0,22.0,,,,,,,5.0,1.952,,,,,,,2016_Oct_24_0919,59.9024549086,Gestalt_exp1,1,24814,,23,0.0380221297479,0.447044444444,0.0380221297479,0.447044444444,23,0.0380221297479,0.447044444444,23
382,11976,images/k23.bmp,gestalt,,,0.0,61.0,61.0,22.0,,,,,,,4.0,1.47,,,,,,,2016_Oct_24_1605,59.9218814736,Gestalt_exp1,1,25255,,23,0.0380221297479,0.447044444444,0.0380221297479,0.447044444444,23,0.0380221297479,0.447044444444,23
383,12145,images/k23.bmp,gestalt,,,0.0,69.0,69.0,22.0,,,,,,,5.0,2.202,,,,,,,2016_Oct_24_1707,59.9232512222,Gestalt_exp1,1,25273,,23,0.0380221297479,0.447044444444,0.0380221297479,0.447044444444,23,0.0380221297479,0.447044444444,23
384,12242,images/k23.bmp,gestalt,,,0.0,5.0,5.0,22.0,,,,,,,4.0,4.668,,,,,,,2016_Oct_24_1308,59.9179437949,Gestalt_exp1,1,25306,,23,0.0380221297479,0.447044444444,0.0380221297479,0.447044444444,23,0.0380221297479,0.447044444444,23
385,6,images/i02.bmp,scrambled,,,0.0,5.0,5.0,31.0,,,,,,,3.0,3.952,,,,,,,2016_Oct_17_1007,59.9207685989,Gestalt_exp1,1,5635,,2,0.0812426755188,0.556033333333,0.0812426755188,0.556033333333,3,0.0812426755188,0.556033333333,2
386,175,images/i02.bmp,scrambled,,,0.0,13.0,13.0,31.0,,,,,,,3.0,1.718,,,,,,,2016_Oct_24_1403,59.9081874302,Gestalt_exp1,1,7333,,2,0.0812426755188,0.556033333333,0.0812426755188,0.556033333333,3,0.0812426755188,0.556033333333,2
387,393,images/i02.bmp,scrambled,,,0.0,70.0,70.0,31.0,,,,,,,2.0,0.885,,,,,,,2016_Oct_17_1508,59.7289465027,Gestalt_exp1,1,7576,,2,0.0812426755188,0.556033333333,0.0812426755188,0.556033333333,3,0.0812426755188,0.556033333333,2
388,551,images/i02.bmp,scrambled,,,0.0,67.0,67.0,31.0,,,,,,,5.0,1.552,,,,,,,2016_May_03_1203,60.0146520147,Gestalt_exp1,1,9010,,2,0.0812426755188,0.556033333333,0.0812426755188,0.556033333333,3,0.0812426755188,0.556033333333,2
389,691,images/i02.bmp,scrambled,,,0.0,46.0,46.0,31.0,,,,,,,5.0,1.537,,,,,,,2016_Sep_19_1511,59.8884276929,Gestalt_exp1,1,11485,,2,0.0812426755188,0.556033333333,0.0812426755188,0.556033333333,3,0.0812426755188,0.556033333333,2
390,806,images/i02.bmp,scrambled,,,0.0,0.0,0.0,31.0,,,,,,,4.0,10.085,,,,,,,2016_Apr_15_1205,59.8039758064,Gestalt_exp1,1,11707,,2,0.0812426755188,0.556033333333,0.0812426755188,0.556033333333,3,0.0812426755188,0.556033333333,2
391,1012,images/i02.bmp,scrambled,,,0.0,45.0,45.0,31.0,,,,,,,4.0,1.869,,,,,,,2016_Apr_21_1606,59.9297583837,Gestalt_exp1,1,11755,,2,0.0812426755188,0.556033333333,0.0812426755188,0.556033333333,3,0.0812426755188,0.556033333333,2
392,1158,images/i02.bmp,scrambled,,,0.0,30.0,30.0,31.0,,,,,,,2.0,3.002,,,,,,,2016_Sep_26_1705,59.9161463311,Gestalt_exp1,1,11758,,2,0.0812426755188,0.556033333333,0.0812426755188,0.556033333333,3,0.0812426755188,0.556033333333,2
393,1361,images/i02.bmp,scrambled,,,0.0,72.0,72.0,31.0,,,,,,,1.0,1.102,,,,,,,2016_Oct_03_1406,59.8820149965,Gestalt_exp1,1,12139,,2,0.0812426755188,0.556033333333,0.0812426755188,0.556033333333,3,0.0812426755188,0.556033333333,2
394,1482,images/i02.bmp,scrambled,,,0.0,32.0,32.0,31.0,,,,,,,6.0,1.835,,,,,,,2016_Aug_24_1710,59.9186285714,Gestalt_exp1,1,13105,,2,0.0812426755188,0.556033333333,0.0812426755188,0.556033333333,3,0.0812426755188,0.556033333333,2
395,1682,images/i02.bmp,scrambled,,,0.0,71.0,71.0,31.0,,,,,,,5.0,1.068,,,,,,,2016_Apr_18_1709,59.9075028923,Gestalt_exp1,1,13201,,2,0.0812426755188,0.556033333333,0.0812426755188,0.556033333333,3,0.0812426755188,0.556033333333,2
396,1785,images/i02.bmp,scrambled,,,0.0,13.0,13.0,31.0,,,,,,,3.0,3.086,,,,,,,2016_Oct_17_1105,59.9175158176,Gestalt_exp1,1,13831,,2,0.0812426755188,0.556033333333,0.0812426755188,0.556033333333,3,0.0812426755188,0.556033333333,2
397,1952,images/i02.bmp,scrambled,,,0.0,19.0,19.0,31.0,,,,,,,4.0,3.253,,,,,,,2016_Oct_10_1504,59.8748344068,Gestalt_exp1,1,14596,,2,0.0812426755188,0.556033333333,0.0812426755188,0.556033333333,3,0.0812426755188,0.556033333333,2
398,2133,images/i02.bmp,scrambled,,,0.0,39.0,39.0,31.0,,,,,,,6.0,1.602,,,,,,,2016_Sep_26_1208,59.9193133636,Gestalt_exp1,1,15643,,2,0.0812426755188,0.556033333333,0.0812426755188,0.556033333333,3,0.0812426755188,0.556033333333,2
399,2277,images/i02.bmp,scrambled,,,0.0,22.0,22.0,31.0,,,,,,,5.0,1.536,,,,,,,2016_May_03_1106,59.9186285714,Gestalt_exp1,1,15928,,2,0.0812426755188,0.556033333333,0.0812426755188,0.556033333333,3,0.0812426755188,0.556033333333,2
400,2464,images/i02.bmp,scrambled,,,0.0,48.0,48.0,31.0,,,,,,,4.0,1.719,,,,,,,2016_Apr_15_1406,60.0222097563,Gestalt_exp1,1,16522,,2,0.0812426755188,0.556033333333,0.0812426755188,0.556033333333,3,0.0812426755188,0.556033333333,2
401,2625,images/i02.bmp,scrambled,,,0.0,48.0,48.0,31.0,,,,,,,3.0,2.301,,,,,,,2016_Apr_15_1507,59.7114299096,Gestalt_exp1,1,16891,,2,0.0812426755188,0.556033333333,0.0812426755188,0.556033333333,3,0.0812426755188,0.556033333333,2
402,2811,images/i02.bmp,scrambled,,,0.0,73.0,73.0,31.0,,,,,,,4.0,1.068,,,,,,,2016_May_02_1508,59.6907803356,Gestalt_exp1,1,17959,,2,0.0812426755188,0.556033333333,0.0812426755188,0.556033333333,3,0.0812426755188,0.556033333333,2
403,2967,images/i02.bmp,scrambled,,,0.0,68.0,68.0,31.0,,,,,,,2.0,1.568,,,,,,,2016_Apr_25_1505,59.9243641891,Gestalt_exp1,1,18019,,2,0.0812426755188,0.556033333333,0.0812426755188,0.556033333333,3,0.0812426755188,0.556033333333,2
404,3082,images/i02.bmp,scrambled,,,0.0,22.0,22.0,31.0,,,,,,,4.0,1.736,,,,,,,2016_Apr_21_1005,59.7296269661,Gestalt_exp1,1,18445,,2,0.0812426755188,0.556033333333,0.0812426755188,0.556033333333,3,0.0812426755188,0.556033333333,2
405,3281,images/i02.bmp,scrambled,,,0.0,60.0,60.0,31.0,,,,,,,3.0,2.286,,,,,,,2016_Aug_24_1628,59.9268471105,Gestalt_exp1,1,18460,,2,0.0812426755188,0.556033333333,0.0812426755188,0.556033333333,3,0.0812426755188,0.556033333333,2
406,3423,images/i02.bmp,scrambled,,,0.0,41.0,41.0,31.0,,,,,,,4.0,1.036,,,,,,,2016_Apr_18_1405,59.9667733237,Gestalt_exp1,1,18913,,2,0.0812426755188,0.556033333333,0.0812426755188,0.556033333333,3,0.0812426755188,0.556033333333,2
407,3543,images/i02.bmp,scrambled,,,0.0,0.0,0.0,31.0,,,,,,,1.0,8.919,,,,,,,2016_Apr_21_1208,60.2507825283,Gestalt_exp1,1,19201,,2,0.0812426755188,0.556033333333,0.0812426755188,0.556033333333,3,0.0812426755188,0.556033333333,2
408,3786,images/i02.bmp,scrambled,,,0.0,82.0,82.0,31.0,,,,,,,5.0,1.452,,,,,,,2016_Apr_21_1103,59.9290733528,Gestalt_exp1,1,19873,,2,0.0812426755188,0.556033333333,0.0812426755188,0.556033333333,3,0.0812426755188,0.556033333333,2
409,3893,images/i02.bmp,scrambled,,,0.0,28.0,28.0,31.0,,,,,,,5.0,2.285,,,,,,,2016_Apr_27_1412,59.9222239049,Gestalt_exp1,1,20353,,2,0.0812426755188,0.556033333333,0.0812426755188,0.556033333333,3,0.0812426755188,0.556033333333,2
410,4049,images/i02.bmp,scrambled,,,0.0,23.0,23.0,31.0,,,,,,,2.0,1.519,,,,,,,2016_Apr_25_1609,59.9377230175,Gestalt_exp1,1,20395,,2,0.0812426755188,0.556033333333,0.0812426755188,0.556033333333,3,0.0812426755188,0.556033333333,2
411,4202,images/i02.bmp,scrambled,,,0.0,15.0,15.0,31.0,,,,,,,6.0,1.352,,,,,,,2016_May_02_1605,59.9351535495,Gestalt_exp1,1,20404,,2,0.0812426755188,0.556033333333,0.0812426755188,0.556033333333,3,0.0812426755188,0.556033333333,2
412,4352,images/i02.bmp,scrambled,,,0.0,4.0,4.0,31.0,,,,,,,1.0,2.485,,,,,,,2016_Apr_28_1503,59.9133219629,Gestalt_exp1,1,20467,,2,0.0812426755188,0.556033333333,0.0812426755188,0.556033333333,3,0.0812426755188,0.556033333333,2
413,4510,images/i02.bmp,scrambled,,,0.0,1.0,1.0,31.0,,,,,,,6.0,4.402,,,,,,,2016_Apr_18_1604,59.9477460481,Gestalt_exp1,1,20650,,2,0.0812426755188,0.556033333333,0.0812426755188,0.556033333333,3,0.0812426755188,0.556033333333,2
414,4699,images/i02.bmp,scrambled,,,0.0,29.0,29.0,31.0,,,,,,,2.0,1.853,,,,,,,2016_May_03_1507,59.9243641891,Gestalt_exp1,1,20755,,2,0.0812426755188,0.556033333333,0.0812426755188,0.556033333333,3,0.0812426755188,0.556033333333,2
415,4848,images/i02.bmp,scrambled,,,0.0,17.0,17.0,31.0,,,,,,,3.0,1.701,,,,,,,2016_Apr_28_1404,59.7556663328,Gestalt_exp1,1,20803,,2,0.0812426755188,0.556033333333,0.0812426755188,0.556033333333,3,0.0812426755188,0.556033333333,2
416,5041,images/i02.bmp,scrambled,,,0.0,49.0,49.0,31.0,,,,,,,5.0,2.085,,,,,,,2016_Apr_28_1007,59.9207685989,Gestalt_exp1,1,20959,,2,0.0812426755188,0.556033333333,0.0812426755188,0.556033333333,3,0.0812426755188,0.556033333333,2
417,5163,images/i02.bmp,scrambled,,,0.0,10.0,10.0,31.0,,,,,,,3.0,1.735,,,,,,,2016_Oct_10_1709,59.9226519495,Gestalt_exp1,1,21055,,2,0.0812426755188,0.556033333333,0.0812426755188,0.556033333333,3,0.0812426755188,0.556033333333,2
418,5334,images/i02.bmp,scrambled,,,0.0,20.0,20.0,31.0,,,,,,,6.0,1.819,,,,,,,2016_Apr_21_1508,59.9182861812,Gestalt_exp1,1,21064,,2,0.0812426755188,0.556033333333,0.0812426755188,0.556033333333,3,0.0812426755188,0.556033333333,2
419,5513,images/i02.bmp,scrambled,,,0.0,38.0,38.0,31.0,,,,,,,4.0,2.135,,,,,,,2016_Apr_28_0910,59.91006999,Gestalt_exp1,1,21127,,2,0.0812426755188,0.556033333333,0.0812426755188,0.556033333333,3,0.0812426755188,0.556033333333,2
420,5691,images/i02.bmp,scrambled,,,0.0,55.0,55.0,31.0,,,,,,,4.0,1.869,,,,,,,2016_Oct_03_1706,59.9135787127,Gestalt_exp1,1,21271,,2,0.0812426755188,0.556033333333,0.0812426755188,0.556033333333,3,0.0812426755188,0.556033333333,2
421,5812,images/i02.bmp,scrambled,,,0.0,15.0,15.0,31.0,,,,,,,4.0,2.135,,,,,,,2016_Oct_10_1311,59.9078451593,Gestalt_exp1,1,21322,,2,0.0812426755188,0.556033333333,0.0812426755188,0.556033333333,3,0.0812426755188,0.556033333333,2
422,5971,images/i02.bmp,scrambled,,,0.0,13.0,13.0,31.0,,,,,,,8.0,2.452,,,,,,,2016_Apr_25_1410,59.9193989637,Gestalt_exp1,1,21436,,2,0.0812426755188,0.556033333333,0.0812426755188,0.556033333333,3,0.0812426755188,0.556033333333,2
423,6166,images/i02.bmp,scrambled,,,0.0,47.0,47.0,31.0,,,,,,,3.0,1.352,,,,,,,2016_May_03_1405,59.9272752211,Gestalt_exp1,1,21511,,2,0.0812426755188,0.556033333333,0.0812426755188,0.556033333333,3,0.0812426755188,0.556033333333,2
424,6315,images/i02.bmp,scrambled,,,0.0,35.0,35.0,31.0,,,,,,,7.0,1.519,,,,,,,2016_May_03_0911,59.9214534399,Gestalt_exp1,1,21625,,2,0.0812426755188,0.556033333333,0.0812426755188,0.556033333333,3,0.0812426755188,0.556033333333,2
425,6461,images/i02.bmp,scrambled,,,0.0,20.0,20.0,31.0,,,,,,,5.0,2.185,,,,,,,2016_Apr_15_1104,59.9215390462,Gestalt_exp1,1,21661,,2,0.0812426755188,0.556033333333,0.0812426755188,0.556033333333,3,0.0812426755188,0.556033333333,2
426,6627,images/i02.bmp,scrambled,,,0.0,25.0,25.0,31.0,,,,,,,3.0,1.336,,,,,,,2016_Apr_27_1506,59.7303925059,Gestalt_exp1,1,21700,,2,0.0812426755188,0.556033333333,0.0812426755188,0.556033333333,3,0.0812426755188,0.556033333333,2
427,6837,images/i02.bmp,scrambled,,,0.0,74.0,74.0,31.0,,,,,,,4.0,1.568,,,,,,,2016_Oct_17_1307,59.7253743245,Gestalt_exp1,1,22129,,2,0.0812426755188,0.556033333333,0.0812426755188,0.556033333333,3,0.0812426755188,0.556033333333,2
428,7001,images/i02.bmp,scrambled,,,0.0,77.0,77.0,31.0,,,,,,,5.0,1.469,,,,,,,2016_Oct_10_1606,59.9369521539,Gestalt_exp1,1,22168,,2,0.0812426755188,0.556033333333,0.0812426755188,0.556033333333,3,0.0812426755188,0.556033333333,2
429,7159,images/i02.bmp,scrambled,,,0.0,74.0,74.0,31.0,,,,,,,3.0,3.018,,,,,,,2016_Apr_21_0913,59.9258196698,Gestalt_exp1,1,22246,,2,0.0812426755188,0.556033333333,0.0812426755188,0.556033333333,3,0.0812426755188,0.556033333333,2
430,7265,images/i02.bmp,scrambled,,,0.0,19.0,19.0,31.0,,,,,,,3.0,1.386,,,,,,,2016_Sep_26_1110,59.8731249964,Gestalt_exp1,1,22315,,2,0.0812426755188,0.556033333333,0.0812426755188,0.556033333333,3,0.0812426755188,0.556033333333,2
