	images	condition	imgB	imgA	trials.thisRepN	trials.thisTrialN	trials.thisN	trials.thisIndex	numLoop.thisRepN	numLoop.thisTrialN	numLoop.thisN	numLoop.thisIndex	response.keys	response.rt	rating.response	rating.rt	key_resp_2.keys	key_resp_2.rt	numResp.keys	numResp.corr	numResp.Alocation	numResp.rt	date	frameRate	expName	session	participant	Unnamed: 27	img
85		Inverted-scrambled	images/i21.bmp	images/INVk21.bmp					0.0	0.0	0.0	43.0							right	0.0	left	1.34985995293	2016_Oct_17_1007	59.9207685989	Gestalt_exp1	1	5635		21
86		Inverted-scrambled	images/i14.bmp	images/INVk14.bmp					0.0	1.0	1.0	38.0							left	1.0	left	1.18330097198	2016_Oct_17_1007	59.9207685989	Gestalt_exp1	1	5635		14
87		Inverted-scrambled	images/i10.bmp	images/INVk10.bmp					0.0	2.0	2.0	36.0							right	1.0	right	1.1000919342	2016_Oct_17_1007	59.9207685989	Gestalt_exp1	1	5635		10
88		Inverted-scrambled	images/i06.bmp	images/INVk06.bmp					0.0	3.0	3.0	34.0							left	1.0	left	1.33349919319	2016_Oct_17_1007	59.9207685989	Gestalt_exp1	1	5635		06
89		Gestalt-scrambled	images/i21.bmp	images/k21.bmp					0.0	4.0	4.0	20.0							right	0.0	left	0.43331193924	2016_Oct_17_1007	59.9207685989	Gestalt_exp1	1	5635		21
90		Inverted-Gestalt	images/k06.bmp	images/INVk06.bmp					0.0	5.0	5.0	57.0							right	0.0	left	0.817042827606	2016_Oct_17_1007	59.9207685989	Gestalt_exp1	1	5635		06
91		Inverted-scrambled	images/i29.bmp	images/INVk29.bmp					0.0	6.0	6.0	51.0							left	1.0	left	0.500736951828	2016_Oct_17_1007	59.9207685989	Gestalt_exp1	1	5635		29
92		Inverted-Gestalt	images/k12.bmp	images/INVk12.bmp					0.0	7.0	7.0	60.0							right	0.0	left	0.500258922577	2016_Oct_17_1007	59.9207685989	Gestalt_exp1	1	5635		12
93		Inverted-scrambled	images/i02.bmp	images/INVk03.bmp					0.0	8.0	8.0	31.0							left	0.0	right	0.933524847031	2016_Oct_17_1007	59.9207685989	Gestalt_exp1	1	5635		03
94		Gestalt-scrambled	images/i19.bmp	images/k19.bmp					0.0	9.0	9.0	18.0							left	0.0	right	0.567048072815	2016_Oct_17_1007	59.9207685989	Gestalt_exp1	1	5635		19
95		Inverted-scrambled	images/i09.bmp	images/INVk09.bmp					0.0	10.0	10.0	35.0							left	0.0	right	1.05037903786	2016_Oct_17_1007	59.9207685989	Gestalt_exp1	1	5635		09
96		Gestalt-scrambled	images/i20.bmp	images/k20.bmp					0.0	11.0	11.0	19.0							left	0.0	right	1.28431010246	2016_Oct_17_1007	59.9207685989	Gestalt_exp1	1	5635		20
97		Gestalt-scrambled	images/i03.bmp	images/k03.bmp					0.0	12.0	12.0	2.0							left	1.0	left	0.350471019745	2016_Oct_17_1007	59.9207685989	Gestalt_exp1	1	5635		03
98		Inverted-Gestalt	images/k05.bmp	images/INVk05.bmp					0.0	13.0	13.0	56.0							right	0.0	left	0.300323963165	2016_Oct_17_1007	59.9207685989	Gestalt_exp1	1	5635		05
99		Inverted-Gestalt	images/k16.bmp	images/INVk16.bmp					0.0	14.0	14.0	63.0							left	1.0	left	0.800168991089	2016_Oct_17_1007	59.9207685989	Gestalt_exp1	1	5635		16
100		Inverted-Gestalt	images/k21.bmp	images/INVk21.bmp					0.0	15.0	15.0	66.0							left	1.0	left	0.41682100296	2016_Oct_17_1007	59.9207685989	Gestalt_exp1	1	5635		21
101		Gestalt-scrambled	images/i13.bmp	images/k13.bmp					0.0	16.0	16.0	12.0							left	1.0	left	0.416797161102	2016_Oct_17_1007	59.9207685989	Gestalt_exp1	1	5635		13
102		Inverted-scrambled	images/i12.bmp	images/INVk12.bmp					0.0	17.0	17.0	37.0							left	1.0	left	0.516829013824	2016_Oct_17_1007	59.9207685989	Gestalt_exp1	1	5635		12
103		Inverted-Gestalt	images/k10.bmp	images/INVk10.bmp					0.0	18.0	18.0	59.0							left	1.0	left	1.05035305023	2016_Oct_17_1007	59.9207685989	Gestalt_exp1	1	5635		10
104		Inverted-scrambled	images/i22.bmp	images/INVk22.bmp					0.0	19.0	19.0	44.0							left	0.0	right	0.584228038788	2016_Oct_17_1007	59.9207685989	Gestalt_exp1	1	5635		22
105		Inverted-scrambled	images/i19.bmp	images/INVk19.bmp					0.0	20.0	20.0	42.0							left	1.0	left	0.36768078804	2016_Oct_17_1007	59.9207685989	Gestalt_exp1	1	5635		19
106		Gestalt-scrambled	images/i17.bmp	images/k17.bmp					0.0	21.0	21.0	16.0							right	0.0	left	0.467700958252	2016_Oct_17_1007	59.9207685989	Gestalt_exp1	1	5635		17
107		Inverted-scrambled	images/i26.bmp	images/INVk26.bmp					0.0	22.0	22.0	48.0							right	0.0	left	1.05047106743	2016_Oct_17_1007	59.9207685989	Gestalt_exp1	1	5635		26
108		Inverted-scrambled	images/i27.bmp	images/INVk27.bmp					0.0	23.0	23.0	49.0							left	1.0	left	0.350394010544	2016_Oct_17_1007	59.9207685989	Gestalt_exp1	1	5635		27
109		Gestalt-scrambled	images/i28.bmp	images/k28.bmp					0.0	24.0	24.0	27.0							left	1.0	left	0.566695928574	2016_Oct_17_1007	59.9207685989	Gestalt_exp1	1	5635		28
110		Inverted-scrambled	images/i01.bmp	images/INVk01.bmp					0.0	25.0	25.0	30.0							left	1.0	left	0.366493940353	2016_Oct_17_1007	59.9207685989	Gestalt_exp1	1	5635		01
111		Inverted-scrambled	images/i25.bmp	images/INVk25.bmp					0.0	26.0	26.0	47.0							right	1.0	right	0.717435121536	2016_Oct_17_1007	59.9207685989	Gestalt_exp1	1	5635		25
112		Gestalt-scrambled	images/i30.bmp	images/k30.bmp					0.0	27.0	27.0	29.0							right	0.0	left	0.667675971985	2016_Oct_17_1007	59.9207685989	Gestalt_exp1	1	5635		30
113		Inverted-Gestalt	images/k29.bmp	images/INVk29.bmp					0.0	28.0	28.0	74.0							right	0.0	left	1.21696305275	2016_Oct_17_1007	59.9207685989	Gestalt_exp1	1	5635		29
114		Inverted-Gestalt	images/k14.bmp	images/INVk14.bmp					0.0	29.0	29.0	61.0							right	1.0	right	0.949523210526	2016_Oct_17_1007	59.9207685989	Gestalt_exp1	1	5635		14
115		Gestalt-scrambled	images/i16.bmp	images/k16.bmp					0.0	30.0	30.0	15.0							left	0.0	right	0.666651964188	2016_Oct_17_1007	59.9207685989	Gestalt_exp1	1	5635		16
116		Gestalt-scrambled	images/i23.bmp	images/k23.bmp					0.0	31.0	31.0	22.0							left	1.0	left	0.633549928665	2016_Oct_17_1007	59.9207685989	Gestalt_exp1	1	5635		23
117		Gestalt-scrambled	images/i06.bmp	images/k06.bmp					0.0	32.0	32.0	5.0							left	0.0	right	0.767614841461	2016_Oct_17_1007	59.9207685989	Gestalt_exp1	1	5635		06
118		Inverted-Gestalt	images/k23.bmp	images/INVk23.bmp					0.0	33.0	33.0	68.0							left	1.0	left	0.48356795311	2016_Oct_17_1007	59.9207685989	Gestalt_exp1	1	5635		23
119		Inverted-Gestalt	images/k01.bmp	images/INVk01.bmp					0.0	34.0	34.0	53.0							left	0.0	right	0.400052070618	2016_Oct_17_1007	59.9207685989	Gestalt_exp1	1	5635		01
120		Inverted-scrambled	images/i23.bmp	images/INVk23.bmp					0.0	35.0	35.0	45.0							right	1.0	right	0.917405128479	2016_Oct_17_1007	59.9207685989	Gestalt_exp1	1	5635		23
121		Inverted-scrambled	images/i28.bmp	images/INVk28.bmp					0.0	36.0	36.0	50.0							left	0.0	right	0.516913890839	2016_Oct_17_1007	59.9207685989	Gestalt_exp1	1	5635		28
122		Inverted-Gestalt	images/k24.bmp	images/INVk24.bmp					0.0	37.0	37.0	69.0							left	0.0	right	0.333271980286	2016_Oct_17_1007	59.9207685989	Gestalt_exp1	1	5635		24
123		Inverted-Gestalt	images/k19.bmp	images/INVk19.bmp					0.0	38.0	38.0	65.0							right	1.0	right	0.516908884048	2016_Oct_17_1007	59.9207685989	Gestalt_exp1	1	5635		19
124		Inverted-scrambled	images/i04.bmp	images/INVk04.bmp					0.0	39.0	39.0	32.0							right	1.0	right	0.50021982193	2016_Oct_17_1007	59.9207685989	Gestalt_exp1	1	5635		04
125		Gestalt-scrambled	images/i11.bmp	images/k11.bmp					0.0	40.0	40.0	10.0							left	1.0	left	1.91686296463	2016_Oct_17_1007	59.9207685989	Gestalt_exp1	1	5635		11
126		Gestalt-scrambled	images/i10.bmp	images/k10.bmp					0.0	41.0	41.0	9.0							left	1.0	left	0.950000047684	2016_Oct_17_1007	59.9207685989	Gestalt_exp1	1	5635		10
127		Inverted-Gestalt	images/k25.bmp	images/INVk25.bmp					0.0	42.0	42.0	70.0							right	0.0	left	1.00021505356	2016_Oct_17_1007	59.9207685989	Gestalt_exp1	1	5635		25
128		Gestalt-scrambled	images/i12.bmp	images/k12.bmp					0.0	43.0	43.0	11.0							left	0.0	right	0.566090106964	2016_Oct_17_1007	59.9207685989	Gestalt_exp1	1	5635		12
129		Gestalt-scrambled	images/i25.bmp	images/k25.bmp					0.0	44.0	44.0	24.0							right	0.0	left	0.766335010529	2016_Oct_17_1007	59.9207685989	Gestalt_exp1	1	5635		25
130		Inverted-Gestalt	images/k04.bmp	images/INVk04.bmp					0.0	45.0	45.0	55.0							left	0.0	right	1.04877305031	2016_Oct_17_1007	59.9207685989	Gestalt_exp1	1	5635		04
131		Gestalt-scrambled	images/i09.bmp	images/k09.bmp					0.0	46.0	46.0	8.0							right	1.0	right	1.18350887299	2016_Oct_17_1007	59.9207685989	Gestalt_exp1	1	5635		09
132		Inverted-scrambled	images/i30.bmp	images/INVk30.bmp					0.0	47.0	47.0	52.0							left	0.0	right	0.93327498436	2016_Oct_17_1007	59.9207685989	Gestalt_exp1	1	5635		30
133		Inverted-scrambled	images/i16.bmp	images/INVk16.bmp					0.0	48.0	48.0	40.0							left	0.0	right	0.333561897278	2016_Oct_17_1007	59.9207685989	Gestalt_exp1	1	5635		16
134		Gestalt-scrambled	images/i08.bmp	images/k08.bmp					0.0	49.0	49.0	7.0							right	0.0	left	0.783499956131	2016_Oct_17_1007	59.9207685989	Gestalt_exp1	1	5635		08
135		Gestalt-scrambled	images/i07.bmp	images/k07.bmp					0.0	50.0	50.0	6.0							left	0.0	right	0.617051839828	2016_Oct_17_1007	59.9207685989	Gestalt_exp1	1	5635		07
136		Gestalt-scrambled	images/i22.bmp	images/k22.bmp					0.0	51.0	51.0	21.0							left	1.0	left	0.400041818619	2016_Oct_17_1007	59.9207685989	Gestalt_exp1	1	5635		22
137		Gestalt-scrambled	images/i18.bmp	images/k18.bmp					0.0	52.0	52.0	17.0							left	0.0	right	0.316851139069	2016_Oct_17_1007	59.9207685989	Gestalt_exp1	1	5635		18
138		Inverted-scrambled	images/i15.bmp	images/INVk15.bmp					0.0	53.0	53.0	39.0							right	0.0	left	0.717026948929	2016_Oct_17_1007	59.9207685989	Gestalt_exp1	1	5635		15
139		Gestalt-scrambled	images/i24.bmp	images/k24.bmp					0.0	54.0	54.0	23.0							right	1.0	right	0.816852092743	2016_Oct_17_1007	59.9207685989	Gestalt_exp1	1	5635		24
140		Inverted-scrambled	images/i24.bmp	images/INVk24.bmp					0.0	55.0	55.0	46.0							left	1.0	left	1.2002120018	2016_Oct_17_1007	59.9207685989	Gestalt_exp1	1	5635		24
141		Inverted-Gestalt	images/k30.bmp	images/INVk30.bmp					0.0	56.0	56.0	75.0							left	1.0	left	0.650351047516	2016_Oct_17_1007	59.9207685989	Gestalt_exp1	1	5635		30
142		Gestalt-scrambled	images/i15.bmp	images/k15.bmp					0.0	57.0	57.0	14.0							left	1.0	left	0.400732040405	2016_Oct_17_1007	59.9207685989	Gestalt_exp1	1	5635		15
143		Inverted-Gestalt	images/k26.bmp	images/INVk26.bmp					0.0	58.0	58.0	71.0							left	1.0	left	0.433596134186	2016_Oct_17_1007	59.9207685989	Gestalt_exp1	1	5635		26
144		Inverted-scrambled	images/i05.bmp	images/INVk05.bmp					0.0	59.0	59.0	33.0							left	1.0	left	0.499666929245	2016_Oct_17_1007	59.9207685989	Gestalt_exp1	1	5635		05
145		Gestalt-scrambled	images/i29.bmp	images/k29.bmp					0.0	60.0	60.0	28.0							left	0.0	right	0.35040807724	2016_Oct_17_1007	59.9207685989	Gestalt_exp1	1	5635		29
146		Inverted-Gestalt	images/k02.bmp	images/INVk03.bmp					0.0	61.0	61.0	54.0							left	0.0	right	0.26704788208	2016_Oct_17_1007	59.9207685989	Gestalt_exp1	1	5635		03
147		Inverted-Gestalt	images/k09.bmp	images/INVk09.bmp					0.0	62.0	62.0	58.0							right	1.0	right	0.733585834503	2016_Oct_17_1007	59.9207685989	Gestalt_exp1	1	5635		09
148		Inverted-Gestalt	images/k18.bmp	images/INVk18.bmp					0.0	63.0	63.0	64.0							left	1.0	left	0.333297014236	2016_Oct_17_1007	59.9207685989	Gestalt_exp1	1	5635		18
149		Gestalt-scrambled	images/i14.bmp	images/k14.bmp					0.0	64.0	64.0	13.0							right	0.0	left	0.76685500145	2016_Oct_17_1007	59.9207685989	Gestalt_exp1	1	5635		14
150		Gestalt-scrambled	images/i04.bmp	images/k04.bmp					0.0	65.0	65.0	3.0							left	0.0	right	0.383388996124	2016_Oct_17_1007	59.9207685989	Gestalt_exp1	1	5635		04
151		Inverted-Gestalt	images/k28.bmp	images/INVk28.bmp					0.0	66.0	66.0	73.0							left	1.0	left	0.666762113571	2016_Oct_17_1007	59.9207685989	Gestalt_exp1	1	5635		28
152		Gestalt-scrambled	images/i27.bmp	images/k27.bmp					0.0	67.0	67.0	26.0							left	0.0	right	0.900199174881	2016_Oct_17_1007	59.9207685989	Gestalt_exp1	1	5635		27
153		Gestalt-scrambled	images/i05.bmp	images/k05.bmp					0.0	68.0	68.0	4.0							right	0.0	left	1.03263998032	2016_Oct_17_1007	59.9207685989	Gestalt_exp1	1	5635		05
154		Inverted-Gestalt	images/k27.bmp	images/INVk27.bmp					0.0	69.0	69.0	72.0							left	1.0	left	1.26653885841	2016_Oct_17_1007	59.9207685989	Gestalt_exp1	1	5635		27
155		Gestalt-scrambled	images/i26.bmp	images/k26.bmp					0.0	70.0	70.0	25.0							left	0.0	right	0.666704893112	2016_Oct_17_1007	59.9207685989	Gestalt_exp1	1	5635		26
156		Gestalt-scrambled	images/i02.bmp	images/k02.bmp					0.0	71.0	71.0	1.0							left	0.0	right	0.599991083145	2016_Oct_17_1007	59.9207685989	Gestalt_exp1	1	5635		02
157		Inverted-Gestalt	images/k22.bmp	images/INVk22.bmp					0.0	72.0	72.0	67.0							left	1.0	left	0.866245031357	2016_Oct_17_1007	59.9207685989	Gestalt_exp1	1	5635		22
158		Gestalt-scrambled	images/i01.bmp	images/k01.bmp					0.0	73.0	73.0	0.0							right	1.0	right	0.366860151291	2016_Oct_17_1007	59.9207685989	Gestalt_exp1	1	5635		01
159		Inverted-scrambled	images/i18.bmp	images/INVk18.bmp					0.0	74.0	74.0	41.0							left	0.0	right	0.999680042267	2016_Oct_17_1007	59.9207685989	Gestalt_exp1	1	5635		18
160		Inverted-Gestalt	images/k15.bmp	images/INVk15.bmp					0.0	75.0	75.0	62.0							right	0.0	left	0.784240007401	2016_Oct_17_1007	59.9207685989	Gestalt_exp1	1	5635		15
246		Inverted-Gestalt	images/k19.bmp	images/INVk19.bmp					0.0	0.0	0.0	65.0							right	1.0	right	0.583532094955	2016_Oct_24_1403	59.9081874302	Gestalt_exp1	1	7333		19
247		Gestalt-scrambled	images/i11.bmp	images/k11.bmp					0.0	1.0	1.0	10.0							right	0.0	left	0.666313886642	2016_Oct_24_1403	59.9081874302	Gestalt_exp1	1	7333		11
248		Inverted-Gestalt	images/k22.bmp	images/INVk22.bmp					0.0	2.0	2.0	67.0							left	0.0	right	0.549444913864	2016_Oct_24_1403	59.9081874302	Gestalt_exp1	1	7333		22
249		Inverted-Gestalt	images/k24.bmp	images/INVk24.bmp					0.0	3.0	3.0	69.0							left	1.0	left	0.632755994797	2016_Oct_24_1403	59.9081874302	Gestalt_exp1	1	7333		24
250		Inverted-Gestalt	images/k25.bmp	images/INVk25.bmp					0.0	4.0	4.0	70.0							left	0.0	right	1.0336868763	2016_Oct_24_1403	59.9081874302	Gestalt_exp1	1	7333		25
251		Inverted-Gestalt	images/k29.bmp	images/INVk29.bmp					0.0	5.0	5.0	74.0							left	1.0	left	0.700111865997	2016_Oct_24_1403	59.9081874302	Gestalt_exp1	1	7333		29
252		Inverted-scrambled	images/i02.bmp	images/INVk03.bmp					0.0	6.0	6.0	31.0							right	0.0	left	0.216687917709	2016_Oct_24_1403	59.9081874302	Gestalt_exp1	1	7333		03
253		Gestalt-scrambled	images/i03.bmp	images/k03.bmp					0.0	7.0	7.0	2.0							left	1.0	left	0.283118963242	2016_Oct_24_1403	59.9081874302	Gestalt_exp1	1	7333		03
254		Gestalt-scrambled	images/i26.bmp	images/k26.bmp					0.0	8.0	8.0	25.0							right	0.0	left	0.250431060791	2016_Oct_24_1403	59.9081874302	Gestalt_exp1	1	7333		26
255		Inverted-scrambled	images/i10.bmp	images/INVk10.bmp					0.0	9.0	9.0	36.0							left	1.0	left	0.666435956955	2016_Oct_24_1403	59.9081874302	Gestalt_exp1	1	7333		10
256		Gestalt-scrambled	images/i22.bmp	images/k22.bmp					0.0	10.0	10.0	21.0							right	1.0	right	0.366813898087	2016_Oct_24_1403	59.9081874302	Gestalt_exp1	1	7333		22
257		Gestalt-scrambled	images/i24.bmp	images/k24.bmp					0.0	11.0	11.0	23.0							left	1.0	left	0.416023015976	2016_Oct_24_1403	59.9081874302	Gestalt_exp1	1	7333		24
258		Inverted-Gestalt	images/k04.bmp	images/INVk04.bmp					0.0	12.0	12.0	55.0							right	0.0	left	0.533737897873	2016_Oct_24_1403	59.9081874302	Gestalt_exp1	1	7333		04
259		Gestalt-scrambled	images/i29.bmp	images/k29.bmp					0.0	13.0	13.0	28.0							right	0.0	left	1.21682095528	2016_Oct_24_1403	59.9081874302	Gestalt_exp1	1	7333		29
260		Inverted-Gestalt	images/k15.bmp	images/INVk15.bmp					0.0	14.0	14.0	62.0							left	0.0	right	0.249992847443	2016_Oct_24_1403	59.9081874302	Gestalt_exp1	1	7333		15
261		Inverted-scrambled	images/i18.bmp	images/INVk18.bmp					0.0	15.0	15.0	41.0							right	1.0	right	0.183495998383	2016_Oct_24_1403	59.9081874302	Gestalt_exp1	1	7333		18
262		Inverted-Gestalt	images/k14.bmp	images/INVk14.bmp					0.0	16.0	16.0	61.0							left	0.0	right	1.76662397385	2016_Oct_24_1403	59.9081874302	Gestalt_exp1	1	7333		14
263		Gestalt-scrambled	images/i12.bmp	images/k12.bmp					0.0	17.0	17.0	11.0							right	1.0	right	0.566742897034	2016_Oct_24_1403	59.9081874302	Gestalt_exp1	1	7333		12
264		Inverted-scrambled	images/i19.bmp	images/INVk19.bmp					0.0	18.0	18.0	42.0							right	1.0	right	1.35005879402	2016_Oct_24_1403	59.9081874302	Gestalt_exp1	1	7333		19
265		Inverted-Gestalt	images/k02.bmp	images/INVk03.bmp					0.0	19.0	19.0	54.0							right	0.0	left	0.317040920258	2016_Oct_24_1403	59.9081874302	Gestalt_exp1	1	7333		03
266		Inverted-scrambled	images/i04.bmp	images/INVk04.bmp					0.0	20.0	20.0	32.0							right	0.0	left	0.350126028061	2016_Oct_24_1403	59.9081874302	Gestalt_exp1	1	7333		04
267		Gestalt-scrambled	images/i27.bmp	images/k27.bmp					0.0	21.0	21.0	26.0							left	0.0	right	0.449813842773	2016_Oct_24_1403	59.9081874302	Gestalt_exp1	1	7333		27
268		Inverted-Gestalt	images/k27.bmp	images/INVk27.bmp					0.0	22.0	22.0	72.0							right	1.0	right	0.399974107742	2016_Oct_24_1403	59.9081874302	Gestalt_exp1	1	7333		27
269		Inverted-scrambled	images/i29.bmp	images/INVk29.bmp					0.0	23.0	23.0	51.0							right	1.0	right	0.515990972519	2016_Oct_24_1403	59.9081874302	Gestalt_exp1	1	7333		29
270		Inverted-Gestalt	images/k09.bmp	images/INVk09.bmp					0.0	24.0	24.0	58.0							left	1.0	left	0.383433818817	2016_Oct_24_1403	59.9081874302	Gestalt_exp1	1	7333		09
271		Gestalt-scrambled	images/i08.bmp	images/k08.bmp					0.0	25.0	25.0	7.0							right	0.0	left	0.134082794189	2016_Oct_24_1403	59.9081874302	Gestalt_exp1	1	7333		08
272		Inverted-scrambled	images/i22.bmp	images/INVk22.bmp					0.0	26.0	26.0	44.0							right	1.0	right	0.13362288475	2016_Oct_24_1403	59.9081874302	Gestalt_exp1	1	7333		22
273		Inverted-scrambled	images/i09.bmp	images/INVk09.bmp					0.0	27.0	27.0	35.0							left	0.0	right	0.31609416008	2016_Oct_24_1403	59.9081874302	Gestalt_exp1	1	7333		09
274		Inverted-Gestalt	images/k01.bmp	images/INVk01.bmp					0.0	28.0	28.0	53.0							right	0.0	left	0.283499002457	2016_Oct_24_1403	59.9081874302	Gestalt_exp1	1	7333		01
275		Inverted-Gestalt	images/k28.bmp	images/INVk28.bmp					0.0	29.0	29.0	73.0							right	1.0	right	0.0341780185699	2016_Oct_24_1403	59.9081874302	Gestalt_exp1	1	7333		28
276		Inverted-scrambled	images/i24.bmp	images/INVk24.bmp					0.0	30.0	30.0	46.0							right	0.0	left	0.300112009048	2016_Oct_24_1403	59.9081874302	Gestalt_exp1	1	7333		24
277		Inverted-scrambled	images/i01.bmp	images/INVk01.bmp					0.0	31.0	31.0	30.0							right	0.0	left	0.7175989151	2016_Oct_24_1403	59.9081874302	Gestalt_exp1	1	7333		01
278		Gestalt-scrambled	images/i28.bmp	images/k28.bmp					0.0	32.0	32.0	27.0							left	0.0	right	0.500316143036	2016_Oct_24_1403	59.9081874302	Gestalt_exp1	1	7333		28
279		Inverted-scrambled	images/i25.bmp	images/INVk25.bmp					0.0	33.0	33.0	47.0							right	0.0	left	0.117000102997	2016_Oct_24_1403	59.9081874302	Gestalt_exp1	1	7333		25
280		Gestalt-scrambled	images/i05.bmp	images/k05.bmp					0.0	34.0	34.0	4.0							right	0.0	left	0.38297700882	2016_Oct_24_1403	59.9081874302	Gestalt_exp1	1	7333		05
281		Inverted-scrambled	images/i16.bmp	images/INVk16.bmp					0.0	35.0	35.0	40.0							right	1.0	right	0.0504047870636	2016_Oct_24_1403	59.9081874302	Gestalt_exp1	1	7333		16
282		Gestalt-scrambled	images/i20.bmp	images/k20.bmp					0.0	36.0	36.0	19.0							right	1.0	right	0.0834891796112	2016_Oct_24_1403	59.9081874302	Gestalt_exp1	1	7333		20
283		Gestalt-scrambled	images/i06.bmp	images/k06.bmp					0.0	37.0	37.0	5.0							left	0.0	right	0.816874980927	2016_Oct_24_1403	59.9081874302	Gestalt_exp1	1	7333		06
284		Inverted-Gestalt	images/k30.bmp	images/INVk30.bmp					0.0	38.0	38.0	75.0							right	1.0	right	0.583338975906	2016_Oct_24_1403	59.9081874302	Gestalt_exp1	1	7333		30
285		Gestalt-scrambled	images/i16.bmp	images/k16.bmp					0.0	39.0	39.0	15.0							left	0.0	right	0.582943916321	2016_Oct_24_1403	59.9081874302	Gestalt_exp1	1	7333		16
286		Inverted-Gestalt	images/k18.bmp	images/INVk18.bmp					0.0	40.0	40.0	64.0							left	1.0	left	0.866658210754	2016_Oct_24_1403	59.9081874302	Gestalt_exp1	1	7333		18
287		Inverted-Gestalt	images/k16.bmp	images/INVk16.bmp					0.0	41.0	41.0	63.0							right	1.0	right	0.732578039169	2016_Oct_24_1403	59.9081874302	Gestalt_exp1	1	7333		16
288		Inverted-scrambled	images/i26.bmp	images/INVk26.bmp					0.0	42.0	42.0	48.0							left	0.0	right	0.834057092667	2016_Oct_24_1403	59.9081874302	Gestalt_exp1	1	7333		26
289		Inverted-scrambled	images/i12.bmp	images/INVk12.bmp					0.0	43.0	43.0	37.0							right	0.0	left	0.516941070557	2016_Oct_24_1403	59.9081874302	Gestalt_exp1	1	7333		12
290		Gestalt-scrambled	images/i17.bmp	images/k17.bmp					0.0	44.0	44.0	16.0							left	1.0	left	0.249922990799	2016_Oct_24_1403	59.9081874302	Gestalt_exp1	1	7333		17
291		Gestalt-scrambled	images/i25.bmp	images/k25.bmp					0.0	45.0	45.0	24.0							right	0.0	left	0.100191116333	2016_Oct_24_1403	59.9081874302	Gestalt_exp1	1	7333		25
292		Gestalt-scrambled	images/i04.bmp	images/k04.bmp					0.0	46.0	46.0	3.0							left	1.0	left	0.200715065002	2016_Oct_24_1403	59.9081874302	Gestalt_exp1	1	7333		04
293		Gestalt-scrambled	images/i07.bmp	images/k07.bmp					0.0	47.0	47.0	6.0							left	1.0	left	1.20009613037	2016_Oct_24_1403	59.9081874302	Gestalt_exp1	1	7333		07
294		Gestalt-scrambled	images/i18.bmp	images/k18.bmp					0.0	48.0	48.0	17.0							right	0.0	left	0.283531904221	2016_Oct_24_1403	59.9081874302	Gestalt_exp1	1	7333		18
295		Gestalt-scrambled	images/i13.bmp	images/k13.bmp					0.0	49.0	49.0	12.0							right	0.0	left	0.417336940765	2016_Oct_24_1403	59.9081874302	Gestalt_exp1	1	7333		13
296		Inverted-Gestalt	images/k21.bmp	images/INVk21.bmp					0.0	50.0	50.0	66.0							right	0.0	left	0.333822011948	2016_Oct_24_1403	59.9081874302	Gestalt_exp1	1	7333		21
297		Gestalt-scrambled	images/i30.bmp	images/k30.bmp					0.0	51.0	51.0	29.0							right	0.0	left	0.166120052338	2016_Oct_24_1403	59.9081874302	Gestalt_exp1	1	7333		30
298		Gestalt-scrambled	images/i21.bmp	images/k21.bmp					0.0	52.0	52.0	20.0							right	1.0	right	0.416106939316	2016_Oct_24_1403	59.9081874302	Gestalt_exp1	1	7333		21
299		Inverted-Gestalt	images/k12.bmp	images/INVk12.bmp					0.0	53.0	53.0	60.0							right	0.0	left	0.150945901871	2016_Oct_24_1403	59.9081874302	Gestalt_exp1	1	7333		12
300		Inverted-scrambled	images/i06.bmp	images/INVk06.bmp					0.0	54.0	54.0	34.0							left	0.0	right	0.36715722084	2016_Oct_24_1403	59.9081874302	Gestalt_exp1	1	7333		06
301		Inverted-Gestalt	images/k10.bmp	images/INVk10.bmp					0.0	55.0	55.0	59.0							right	1.0	right	0.216846942902	2016_Oct_24_1403	59.9081874302	Gestalt_exp1	1	7333		10
302		Gestalt-scrambled	images/i23.bmp	images/k23.bmp					0.0	56.0	56.0	22.0							right	0.0	left	0.549873113632	2016_Oct_24_1403	59.9081874302	Gestalt_exp1	1	7333		23
303		Gestalt-scrambled	images/i09.bmp	images/k09.bmp					0.0	57.0	57.0	8.0							right	0.0	left	0.417196989059	2016_Oct_24_1403	59.9081874302	Gestalt_exp1	1	7333		09
304		Gestalt-scrambled	images/i01.bmp	images/k01.bmp					0.0	58.0	58.0	0.0							right	0.0	left	0.284273862839	2016_Oct_24_1403	59.9081874302	Gestalt_exp1	1	7333		01
305		Inverted-scrambled	images/i14.bmp	images/INVk14.bmp					0.0	59.0	59.0	38.0							right	0.0	left	0.250493049622	2016_Oct_24_1403	59.9081874302	Gestalt_exp1	1	7333		14
306		Inverted-Gestalt	images/k23.bmp	images/INVk23.bmp					0.0	60.0	60.0	68.0							left	0.0	right	0.250420093536	2016_Oct_24_1403	59.9081874302	Gestalt_exp1	1	7333		23
307		Inverted-scrambled	images/i05.bmp	images/INVk05.bmp					0.0	61.0	61.0	33.0							right	0.0	left	0.533201932907	2016_Oct_24_1403	59.9081874302	Gestalt_exp1	1	7333		05
308		Gestalt-scrambled	images/i10.bmp	images/k10.bmp					0.0	62.0	62.0	9.0							right	1.0	right	0.550177097321	2016_Oct_24_1403	59.9081874302	Gestalt_exp1	1	7333		10
309		Inverted-Gestalt	images/k26.bmp	images/INVk26.bmp					0.0	63.0	63.0	71.0							left	0.0	right	0.566812038422	2016_Oct_24_1403	59.9081874302	Gestalt_exp1	1	7333		26
310		Inverted-Gestalt	images/k06.bmp	images/INVk06.bmp					0.0	64.0	64.0	57.0							right	0.0	left	0.117048978806	2016_Oct_24_1403	59.9081874302	Gestalt_exp1	1	7333		06
311		Inverted-Gestalt	images/k05.bmp	images/INVk05.bmp					0.0	65.0	65.0	56.0							right	0.0	left	0.416064977646	2016_Oct_24_1403	59.9081874302	Gestalt_exp1	1	7333		05
312		Gestalt-scrambled	images/i15.bmp	images/k15.bmp					0.0	66.0	66.0	14.0							right	0.0	left	0.43376994133	2016_Oct_24_1403	59.9081874302	Gestalt_exp1	1	7333		15
313		Gestalt-scrambled	images/i02.bmp	images/k02.bmp					0.0	67.0	67.0	1.0							right	0.0	left	0.416834115982	2016_Oct_24_1403	59.9081874302	Gestalt_exp1	1	7333		02
314		Inverted-scrambled	images/i15.bmp	images/INVk15.bmp					0.0	68.0	68.0	39.0							left	0.0	right	0.883733987808	2016_Oct_24_1403	59.9081874302	Gestalt_exp1	1	7333		15
315		Gestalt-scrambled	images/i14.bmp	images/k14.bmp					0.0	69.0	69.0	13.0							right	0.0	left	0.032763004303	2016_Oct_24_1403	59.9081874302	Gestalt_exp1	1	7333		14
316		Inverted-scrambled	images/i21.bmp	images/INVk21.bmp					0.0	70.0	70.0	43.0							right	0.0	left	2.66675305367	2016_Oct_24_1403	59.9081874302	Gestalt_exp1	1	7333		21
317		Gestalt-scrambled	images/i19.bmp	images/k19.bmp					0.0	71.0	71.0	18.0							left	0.0	right	0.383317947388	2016_Oct_24_1403	59.9081874302	Gestalt_exp1	1	7333		19
318		Inverted-scrambled	images/i27.bmp	images/INVk27.bmp					0.0	72.0	72.0	49.0							right	0.0	left	0.33349609375	2016_Oct_24_1403	59.9081874302	Gestalt_exp1	1	7333		27
319		Inverted-scrambled	images/i23.bmp	images/INVk23.bmp					0.0	73.0	73.0	45.0							right	1.0	right	0.450376033783	2016_Oct_24_1403	59.9081874302	Gestalt_exp1	1	7333		23
320		Inverted-scrambled	images/i30.bmp	images/INVk30.bmp					0.0	74.0	74.0	52.0							right	0.0	left	0.200153112411	2016_Oct_24_1403	59.9081874302	Gestalt_exp1	1	7333		30
321		Inverted-scrambled	images/i28.bmp	images/INVk28.bmp					0.0	75.0	75.0	50.0							left	0.0	right	0.900470018387	2016_Oct_24_1403	59.9081874302	Gestalt_exp1	1	7333		28
407		Inverted-Gestalt	images/k09.bmp	images/INVk09.bmp					0.0	0.0	0.0	58.0							right	1.0	right	0.583404064178	2016_Oct_17_1508	59.7289465027	Gestalt_exp1	1	7576		09
408		Inverted-scrambled	images/i28.bmp	images/INVk28.bmp					0.0	1.0	1.0	50.0							left	1.0	left	0.416095018387	2016_Oct_17_1508	59.7289465027	Gestalt_exp1	1	7576		28
409		Gestalt-scrambled	images/i07.bmp	images/k07.bmp					0.0	2.0	2.0	6.0							right	0.0	left	0.200204133987	2016_Oct_17_1508	59.7289465027	Gestalt_exp1	1	7576		07
410		Gestalt-scrambled	images/i15.bmp	images/k15.bmp					0.0	3.0	3.0	14.0							right	1.0	right	0.283547878265	2016_Oct_17_1508	59.7289465027	Gestalt_exp1	1	7576		15
411		Inverted-Gestalt	images/k23.bmp	images/INVk23.bmp					0.0	4.0	4.0	68.0							right	1.0	right	0.249459028244	2016_Oct_17_1508	59.7289465027	Gestalt_exp1	1	7576		23
412		Inverted-scrambled	images/i29.bmp	images/INVk29.bmp					0.0	5.0	5.0	51.0							right	0.0	left	0.0834898948669	2016_Oct_17_1508	59.7289465027	Gestalt_exp1	1	7576		29
413		Inverted-Gestalt	images/k29.bmp	images/INVk29.bmp					0.0	6.0	6.0	74.0							right	1.0	right	0.133215904236	2016_Oct_17_1508	59.7289465027	Gestalt_exp1	1	7576		29
414		Inverted-Gestalt	images/k10.bmp	images/INVk10.bmp					0.0	7.0	7.0	59.0							right	1.0	right	0.866633892059	2016_Oct_17_1508	59.7289465027	Gestalt_exp1	1	7576		10
415		Inverted-Gestalt	images/k25.bmp	images/INVk25.bmp					0.0	8.0	8.0	70.0							right	1.0	right	1.08339881897	2016_Oct_17_1508	59.7289465027	Gestalt_exp1	1	7576		25
416		Inverted-scrambled	images/i27.bmp	images/INVk27.bmp					0.0	9.0	9.0	49.0							right	0.0	left	0.333332061768	2016_Oct_17_1508	59.7289465027	Gestalt_exp1	1	7576		27
417		Inverted-Gestalt	images/k24.bmp	images/INVk24.bmp					0.0	10.0	10.0	69.0							left	1.0	left	0.400337934494	2016_Oct_17_1508	59.7289465027	Gestalt_exp1	1	7576		24
418		Inverted-scrambled	images/i23.bmp	images/INVk23.bmp					0.0	11.0	11.0	45.0							right	1.0	right	0.800247907639	2016_Oct_17_1508	59.7289465027	Gestalt_exp1	1	7576		23
419		Inverted-Gestalt	images/k16.bmp	images/INVk16.bmp					0.0	12.0	12.0	63.0							right	1.0	right	0.200227975845	2016_Oct_17_1508	59.7289465027	Gestalt_exp1	1	7576		16
420		Gestalt-scrambled	images/i08.bmp	images/k08.bmp					0.0	13.0	13.0	7.0							right	0.0	left	0.766785144806	2016_Oct_17_1508	59.7289465027	Gestalt_exp1	1	7576		08
421		Inverted-scrambled	images/i16.bmp	images/INVk16.bmp					0.0	14.0	14.0	40.0							right	0.0	left	0.217028856277	2016_Oct_17_1508	59.7289465027	Gestalt_exp1	1	7576		16
422		Gestalt-scrambled	images/i04.bmp	images/k04.bmp					0.0	15.0	15.0	3.0							right	1.0	right	0.133238077164	2016_Oct_17_1508	59.7289465027	Gestalt_exp1	1	7576		04
423		Gestalt-scrambled	images/i25.bmp	images/k25.bmp					0.0	16.0	16.0	24.0							right	0.0	left	0.116847038269	2016_Oct_17_1508	59.7289465027	Gestalt_exp1	1	7576		25
424		Gestalt-scrambled	images/i24.bmp	images/k24.bmp					0.0	17.0	17.0	23.0							right	1.0	right	2.33363199234	2016_Oct_17_1508	59.7289465027	Gestalt_exp1	1	7576		24
425		Inverted-scrambled	images/i01.bmp	images/INVk01.bmp					0.0	18.0	18.0	30.0							right	0.0	left	0.333206892014	2016_Oct_17_1508	59.7289465027	Gestalt_exp1	1	7576		01
426		Inverted-Gestalt	images/k01.bmp	images/INVk01.bmp					0.0	19.0	19.0	53.0							right	1.0	right	0.116858005524	2016_Oct_17_1508	59.7289465027	Gestalt_exp1	1	7576		01
427		Gestalt-scrambled	images/i14.bmp	images/k14.bmp					0.0	20.0	20.0	13.0							right	0.0	left	0.599631071091	2016_Oct_17_1508	59.7289465027	Gestalt_exp1	1	7576		14
428		Gestalt-scrambled	images/i12.bmp	images/k12.bmp					0.0	21.0	21.0	11.0							left	0.0	right	0.216956853867	2016_Oct_17_1508	59.7289465027	Gestalt_exp1	1	7576		12
429		Inverted-Gestalt	images/k27.bmp	images/INVk27.bmp					0.0	22.0	22.0	72.0							right	1.0	right	0.366626977921	2016_Oct_17_1508	59.7289465027	Gestalt_exp1	1	7576		27
430		Gestalt-scrambled	images/i13.bmp	images/k13.bmp					0.0	23.0	23.0	12.0							right	0.0	left	0.749907970428	2016_Oct_17_1508	59.7289465027	Gestalt_exp1	1	7576		13
431		Inverted-scrambled	images/i12.bmp	images/INVk12.bmp					0.0	24.0	24.0	37.0							right	0.0	left	0.46657705307	2016_Oct_17_1508	59.7289465027	Gestalt_exp1	1	7576		12
432		Inverted-Gestalt	images/k14.bmp	images/INVk14.bmp					0.0	25.0	25.0	61.0							right	0.0	left	0.534271001816	2016_Oct_17_1508	59.7289465027	Gestalt_exp1	1	7576		14
433		Inverted-Gestalt	images/k30.bmp	images/INVk30.bmp					0.0	26.0	26.0	75.0							left	0.0	right	0.650470018387	2016_Oct_17_1508	59.7289465027	Gestalt_exp1	1	7576		30
434		Inverted-Gestalt	images/k19.bmp	images/INVk19.bmp					0.0	27.0	27.0	65.0							right	1.0	right	0.416793107986	2016_Oct_17_1508	59.7289465027	Gestalt_exp1	1	7576		19
435		Inverted-Gestalt	images/k06.bmp	images/INVk06.bmp					0.0	28.0	28.0	57.0							left	1.0	left	0.300411224365	2016_Oct_17_1508	59.7289465027	Gestalt_exp1	1	7576		06
436		Gestalt-scrambled	images/i23.bmp	images/k23.bmp					0.0	29.0	29.0	22.0							right	0.0	left	0.43331694603	2016_Oct_17_1508	59.7289465027	Gestalt_exp1	1	7576		23
437		Gestalt-scrambled	images/i09.bmp	images/k09.bmp					0.0	30.0	30.0	8.0							right	0.0	left	0.233542919159	2016_Oct_17_1508	59.7289465027	Gestalt_exp1	1	7576		09
438		Inverted-Gestalt	images/k04.bmp	images/INVk04.bmp					0.0	31.0	31.0	55.0							right	1.0	right	0.116734981537	2016_Oct_17_1508	59.7289465027	Gestalt_exp1	1	7576		04
439		Gestalt-scrambled	images/i10.bmp	images/k10.bmp					0.0	32.0	32.0	9.0							right	0.0	left	0.0666170120239	2016_Oct_17_1508	59.7289465027	Gestalt_exp1	1	7576		10
440		Inverted-scrambled	images/i15.bmp	images/INVk15.bmp					0.0	33.0	33.0	39.0							right	1.0	right	0.30104804039	2016_Oct_17_1508	59.7289465027	Gestalt_exp1	1	7576		15
441		Inverted-Gestalt	images/k22.bmp	images/INVk22.bmp					0.0	34.0	34.0	67.0							right	1.0	right	0.150386095047	2016_Oct_17_1508	59.7289465027	Gestalt_exp1	1	7576		22
442		Inverted-Gestalt	images/k18.bmp	images/INVk18.bmp					0.0	35.0	35.0	64.0							right	0.0	left	0.14949798584	2016_Oct_17_1508	59.7289465027	Gestalt_exp1	1	7576		18
443		Inverted-scrambled	images/i10.bmp	images/INVk10.bmp					0.0	36.0	36.0	36.0							right	1.0	right	0.166735887527	2016_Oct_17_1508	59.7289465027	Gestalt_exp1	1	7576		10
444		Inverted-scrambled	images/i25.bmp	images/INVk25.bmp					0.0	37.0	37.0	47.0							left	0.0	right	0.583554983139	2016_Oct_17_1508	59.7289465027	Gestalt_exp1	1	7576		25
445		Inverted-scrambled	images/i14.bmp	images/INVk14.bmp					0.0	38.0	38.0	38.0							right	0.0	left	0.183763980865	2016_Oct_17_1508	59.7289465027	Gestalt_exp1	1	7576		14
446		Gestalt-scrambled	images/i21.bmp	images/k21.bmp					0.0	39.0	39.0	20.0							left	0.0	right	0.116898059845	2016_Oct_17_1508	59.7289465027	Gestalt_exp1	1	7576		21
447		Inverted-scrambled	images/i21.bmp	images/INVk21.bmp					0.0	40.0	40.0	43.0							right	0.0	left	0.350128889084	2016_Oct_17_1508	59.7289465027	Gestalt_exp1	1	7576		21
448		Inverted-scrambled	images/i24.bmp	images/INVk24.bmp					0.0	41.0	41.0	46.0							right	1.0	right	0.33372592926	2016_Oct_17_1508	59.7289465027	Gestalt_exp1	1	7576		24
449		Gestalt-scrambled	images/i02.bmp	images/k02.bmp					0.0	42.0	42.0	1.0							right	1.0	right	0.100233078003	2016_Oct_17_1508	59.7289465027	Gestalt_exp1	1	7576		02
450		Inverted-Gestalt	images/k28.bmp	images/INVk28.bmp					0.0	43.0	43.0	73.0							left	0.0	right	0.683408021927	2016_Oct_17_1508	59.7289465027	Gestalt_exp1	1	7576		28
451		Inverted-Gestalt	images/k05.bmp	images/INVk05.bmp					0.0	44.0	44.0	56.0							right	0.0	left	0.54997587204	2016_Oct_17_1508	59.7289465027	Gestalt_exp1	1	7576		05
452		Inverted-scrambled	images/i18.bmp	images/INVk18.bmp					0.0	45.0	45.0	41.0							right	1.0	right	0.0668361186981	2016_Oct_17_1508	59.7289465027	Gestalt_exp1	1	7576		18
453		Gestalt-scrambled	images/i27.bmp	images/k27.bmp					0.0	46.0	46.0	26.0							right	0.0	left	0.133522033691	2016_Oct_17_1508	59.7289465027	Gestalt_exp1	1	7576		27
454		Gestalt-scrambled	images/i11.bmp	images/k11.bmp					0.0	47.0	47.0	10.0							right	0.0	left	0.500207901001	2016_Oct_17_1508	59.7289465027	Gestalt_exp1	1	7576		11
455		Gestalt-scrambled	images/i22.bmp	images/k22.bmp					0.0	48.0	48.0	21.0							left	1.0	left	0.217065095901	2016_Oct_17_1508	59.7289465027	Gestalt_exp1	1	7576		22
456		Gestalt-scrambled	images/i01.bmp	images/k01.bmp					0.0	49.0	49.0	0.0							right	0.0	left	0.316602945328	2016_Oct_17_1508	59.7289465027	Gestalt_exp1	1	7576		01
457		Gestalt-scrambled	images/i03.bmp	images/k03.bmp					0.0	50.0	50.0	2.0							right	0.0	left	0.200073003769	2016_Oct_17_1508	59.7289465027	Gestalt_exp1	1	7576		03
458		Inverted-Gestalt	images/k02.bmp	images/INVk03.bmp					0.0	51.0	51.0	54.0							left	0.0	right	0.449905872345	2016_Oct_17_1508	59.7289465027	Gestalt_exp1	1	7576		03
459		Gestalt-scrambled	images/i17.bmp	images/k17.bmp					0.0	52.0	52.0	16.0							right	0.0	left	0.0501489639282	2016_Oct_17_1508	59.7289465027	Gestalt_exp1	1	7576		17
460		Inverted-scrambled	images/i02.bmp	images/INVk03.bmp					0.0	53.0	53.0	31.0							right	0.0	left	0.0835318565369	2016_Oct_17_1508	59.7289465027	Gestalt_exp1	1	7576		03
461		Inverted-scrambled	images/i26.bmp	images/INVk26.bmp					0.0	54.0	54.0	48.0							right	0.0	left	0.250153064728	2016_Oct_17_1508	59.7289465027	Gestalt_exp1	1	7576		26
462		Inverted-scrambled	images/i19.bmp	images/INVk19.bmp					0.0	55.0	55.0	42.0							left	0.0	right	0.400043010712	2016_Oct_17_1508	59.7289465027	Gestalt_exp1	1	7576		19
463		Gestalt-scrambled	images/i28.bmp	images/k28.bmp					0.0	56.0	56.0	27.0							left	0.0	right	0.216824054718	2016_Oct_17_1508	59.7289465027	Gestalt_exp1	1	7576		28
464		Gestalt-scrambled	images/i29.bmp	images/k29.bmp					0.0	57.0	57.0	28.0							left	0.0	right	0.400212049484	2016_Oct_17_1508	59.7289465027	Gestalt_exp1	1	7576		29
465		Inverted-scrambled	images/i09.bmp	images/INVk09.bmp					0.0	58.0	58.0	35.0							right	0.0	left	0.13433098793	2016_Oct_17_1508	59.7289465027	Gestalt_exp1	1	7576		09
466		Inverted-Gestalt	images/k21.bmp	images/INVk21.bmp					0.0	59.0	59.0	66.0							right	1.0	right	0.350510120392	2016_Oct_17_1508	59.7289465027	Gestalt_exp1	1	7576		21
467		Inverted-scrambled	images/i22.bmp	images/INVk22.bmp					0.0	60.0	60.0	44.0							right	0.0	left	2.20019698143	2016_Oct_17_1508	59.7289465027	Gestalt_exp1	1	7576		22
468		Inverted-Gestalt	images/k26.bmp	images/INVk26.bmp					0.0	61.0	61.0	71.0							right	1.0	right	0.100188970566	2016_Oct_17_1508	59.7289465027	Gestalt_exp1	1	7576		26
469		Inverted-Gestalt	images/k12.bmp	images/INVk12.bmp					0.0	62.0	62.0	60.0							right	1.0	right	0.216891050339	2016_Oct_17_1508	59.7289465027	Gestalt_exp1	1	7576		12
470		Gestalt-scrambled	images/i26.bmp	images/k26.bmp					0.0	63.0	63.0	25.0							left	0.0	right	0.116750001907	2016_Oct_17_1508	59.7289465027	Gestalt_exp1	1	7576		26
471		Inverted-scrambled	images/i04.bmp	images/INVk04.bmp					0.0	64.0	64.0	32.0							right	0.0	left	0.317363977432	2016_Oct_17_1508	59.7289465027	Gestalt_exp1	1	7576		04
472		Inverted-Gestalt	images/k15.bmp	images/INVk15.bmp					0.0	65.0	65.0	62.0							right	1.0	right	0.150495052338	2016_Oct_17_1508	59.7289465027	Gestalt_exp1	1	7576		15
473		Gestalt-scrambled	images/i30.bmp	images/k30.bmp					0.0	66.0	66.0	29.0							right	0.0	left	0.316885948181	2016_Oct_17_1508	59.7289465027	Gestalt_exp1	1	7576		30
474		Gestalt-scrambled	images/i19.bmp	images/k19.bmp					0.0	67.0	67.0	18.0							right	1.0	right	0.0336952209473	2016_Oct_17_1508	59.7289465027	Gestalt_exp1	1	7576		19
475		Gestalt-scrambled	images/i05.bmp	images/k05.bmp					0.0	68.0	68.0	4.0							left	0.0	right	0.0675799846649	2016_Oct_17_1508	59.7289465027	Gestalt_exp1	1	7576		05
476		Gestalt-scrambled	images/i20.bmp	images/k20.bmp					0.0	69.0	69.0	19.0							right	1.0	right	0.0835840702057	2016_Oct_17_1508	59.7289465027	Gestalt_exp1	1	7576		20
477		Gestalt-scrambled	images/i16.bmp	images/k16.bmp					0.0	70.0	70.0	15.0							right	1.0	right	0.483412027359	2016_Oct_17_1508	59.7289465027	Gestalt_exp1	1	7576		16
478		Inverted-scrambled	images/i06.bmp	images/INVk06.bmp					0.0	71.0	71.0	34.0							right	1.0	right	0.449976205826	2016_Oct_17_1508	59.7289465027	Gestalt_exp1	1	7576		06
479		Inverted-scrambled	images/i05.bmp	images/INVk05.bmp					0.0	72.0	72.0	33.0							right	0.0	left	0.317028999329	2016_Oct_17_1508	59.7289465027	Gestalt_exp1	1	7576		05
480		Gestalt-scrambled	images/i18.bmp	images/k18.bmp					0.0	73.0	73.0	17.0							left	0.0	right	0.183596849442	2016_Oct_17_1508	59.7289465027	Gestalt_exp1	1	7576		18
481		Inverted-scrambled	images/i30.bmp	images/INVk30.bmp					0.0	74.0	74.0	52.0							right	0.0	left	0.216817855835	2016_Oct_17_1508	59.7289465027	Gestalt_exp1	1	7576		30
482		Gestalt-scrambled	images/i06.bmp	images/k06.bmp					0.0	75.0	75.0	5.0							left	0.0	right	0.116865873337	2016_Oct_17_1508	59.7289465027	Gestalt_exp1	1	7576		06
568		Inverted-Gestalt	images/k05.bmp	images/INVk05.bmp					0.0	0.0	0.0	56.0							right	0.0	left	0.849625825882	2016_May_03_1203	60.0146520147	Gestalt_exp1	1	9010		05
569		Inverted-scrambled	images/i10.bmp	images/INVk10.bmp					0.0	1.0	1.0	36.0							right	1.0	right	0.649879932404	2016_May_03_1203	60.0146520147	Gestalt_exp1	1	9010		10
570		Inverted-Gestalt	images/k24.bmp	images/INVk24.bmp					0.0	2.0	2.0	69.0							right	1.0	right	0.749957084656	2016_May_03_1203	60.0146520147	Gestalt_exp1	1	9010		24
571		Gestalt-scrambled	images/i28.bmp	images/k28.bmp					0.0	3.0	3.0	27.0							left	0.0	right	0.583539962769	2016_May_03_1203	60.0146520147	Gestalt_exp1	1	9010		28
572		Inverted-scrambled	images/i22.bmp	images/INVk22.bmp					0.0	4.0	4.0	44.0							left	0.0	right	0.616847038269	2016_May_03_1203	60.0146520147	Gestalt_exp1	1	9010		22
573		Gestalt-scrambled	images/i22.bmp	images/k22.bmp					0.0	5.0	5.0	21.0							left	0.0	right	0.616854190826	2016_May_03_1203	60.0146520147	Gestalt_exp1	1	9010		22
574		Inverted-scrambled	images/i29.bmp	images/INVk29.bmp					0.0	6.0	6.0	51.0							right	0.0	left	0.500383138657	2016_May_03_1203	60.0146520147	Gestalt_exp1	1	9010		29
575		Inverted-Gestalt	images/k15.bmp	images/INVk15.bmp					0.0	7.0	7.0	62.0							right	1.0	right	0.349451065063	2016_May_03_1203	60.0146520147	Gestalt_exp1	1	9010		15
576		Gestalt-scrambled	images/i16.bmp	images/k16.bmp					0.0	8.0	8.0	15.0							right	0.0	left	0.616640806198	2016_May_03_1203	60.0146520147	Gestalt_exp1	1	9010		16
577		Inverted-Gestalt	images/k18.bmp	images/INVk18.bmp					0.0	9.0	9.0	64.0							left	0.0	right	0.633734941483	2016_May_03_1203	60.0146520147	Gestalt_exp1	1	9010		18
578		Inverted-scrambled	images/i23.bmp	images/INVk23.bmp					0.0	10.0	10.0	45.0							left	1.0	left	0.66633605957	2016_May_03_1203	60.0146520147	Gestalt_exp1	1	9010		23
579		Gestalt-scrambled	images/i29.bmp	images/k29.bmp					0.0	11.0	11.0	28.0							right	1.0	right	0.533332109451	2016_May_03_1203	60.0146520147	Gestalt_exp1	1	9010		29
580		Gestalt-scrambled	images/i01.bmp	images/k01.bmp					0.0	12.0	12.0	0.0							right	1.0	right	0.317080974579	2016_May_03_1203	60.0146520147	Gestalt_exp1	1	9010		01
581		Inverted-Gestalt	images/k01.bmp	images/INVk01.bmp					0.0	13.0	13.0	53.0							right	1.0	right	0.800091981888	2016_May_03_1203	60.0146520147	Gestalt_exp1	1	9010		01
582		Inverted-scrambled	images/i28.bmp	images/INVk28.bmp					0.0	14.0	14.0	50.0							right	0.0	left	0.816853046417	2016_May_03_1203	60.0146520147	Gestalt_exp1	1	9010		28
583		Gestalt-scrambled	images/i02.bmp	images/k02.bmp					0.0	15.0	15.0	1.0							right	0.0	left	0.816087961197	2016_May_03_1203	60.0146520147	Gestalt_exp1	1	9010		02
584		Inverted-Gestalt	images/k10.bmp	images/INVk10.bmp					0.0	16.0	16.0	59.0							right	0.0	left	0.900259971619	2016_May_03_1203	60.0146520147	Gestalt_exp1	1	9010		10
585		Inverted-scrambled	images/i12.bmp	images/INVk12.bmp					0.0	17.0	17.0	37.0							left	1.0	left	0.766638994217	2016_May_03_1203	60.0146520147	Gestalt_exp1	1	9010		12
586		Inverted-scrambled	images/i06.bmp	images/INVk06.bmp					0.0	18.0	18.0	34.0							left	0.0	right	0.817389011383	2016_May_03_1203	60.0146520147	Gestalt_exp1	1	9010		06
587		Inverted-Gestalt	images/k21.bmp	images/INVk21.bmp					0.0	19.0	19.0	66.0							right	1.0	right	0.333614826202	2016_May_03_1203	60.0146520147	Gestalt_exp1	1	9010		21
588		Gestalt-scrambled	images/i23.bmp	images/k23.bmp					0.0	20.0	20.0	22.0							left	1.0	left	0.582991123199	2016_May_03_1203	60.0146520147	Gestalt_exp1	1	9010		23
589		Inverted-scrambled	images/i16.bmp	images/INVk16.bmp					0.0	21.0	21.0	40.0							right	1.0	right	0.46709895134	2016_May_03_1203	60.0146520147	Gestalt_exp1	1	9010		16
590		Gestalt-scrambled	images/i14.bmp	images/k14.bmp					0.0	22.0	22.0	13.0							right	1.0	right	0.584064006805	2016_May_03_1203	60.0146520147	Gestalt_exp1	1	9010		14
591		Gestalt-scrambled	images/i12.bmp	images/k12.bmp					0.0	23.0	23.0	11.0							left	1.0	left	0.700196027756	2016_May_03_1203	60.0146520147	Gestalt_exp1	1	9010		12
592		Inverted-scrambled	images/i09.bmp	images/INVk09.bmp					0.0	24.0	24.0	35.0							left	1.0	left	0.450164079666	2016_May_03_1203	60.0146520147	Gestalt_exp1	1	9010		09
593		Inverted-scrambled	images/i02.bmp	images/INVk03.bmp					0.0	25.0	25.0	31.0							left	0.0	right	0.616968870163	2016_May_03_1203	60.0146520147	Gestalt_exp1	1	9010		03
594		Gestalt-scrambled	images/i24.bmp	images/k24.bmp					0.0	26.0	26.0	23.0							left	0.0	right	0.666297912598	2016_May_03_1203	60.0146520147	Gestalt_exp1	1	9010		24
595		Gestalt-scrambled	images/i20.bmp	images/k20.bmp					0.0	27.0	27.0	19.0							right	1.0	right	0.616656064987	2016_May_03_1203	60.0146520147	Gestalt_exp1	1	9010		20
596		Inverted-scrambled	images/i27.bmp	images/INVk27.bmp					0.0	28.0	28.0	49.0							right	0.0	left	0.850270986557	2016_May_03_1203	60.0146520147	Gestalt_exp1	1	9010		27
597		Gestalt-scrambled	images/i13.bmp	images/k13.bmp					0.0	29.0	29.0	12.0							left	1.0	left	0.733749866486	2016_May_03_1203	60.0146520147	Gestalt_exp1	1	9010		13
598		Inverted-scrambled	images/i24.bmp	images/INVk24.bmp					0.0	30.0	30.0	46.0							left	0.0	right	0.683008909225	2016_May_03_1203	60.0146520147	Gestalt_exp1	1	9010		24
599		Gestalt-scrambled	images/i09.bmp	images/k09.bmp					0.0	31.0	31.0	8.0							left	1.0	left	0.78430390358	2016_May_03_1203	60.0146520147	Gestalt_exp1	1	9010		09
600		Inverted-scrambled	images/i26.bmp	images/INVk26.bmp					0.0	32.0	32.0	48.0							right	0.0	left	0.616950035095	2016_May_03_1203	60.0146520147	Gestalt_exp1	1	9010		26
601		Inverted-scrambled	images/i01.bmp	images/INVk01.bmp					0.0	33.0	33.0	30.0							right	1.0	right	0.533293008804	2016_May_03_1203	60.0146520147	Gestalt_exp1	1	9010		01
602		Inverted-scrambled	images/i19.bmp	images/INVk19.bmp					0.0	34.0	34.0	42.0							right	0.0	left	0.716881036758	2016_May_03_1203	60.0146520147	Gestalt_exp1	1	9010		19
603		Inverted-Gestalt	images/k27.bmp	images/INVk27.bmp					0.0	35.0	35.0	72.0							left	1.0	left	0.582951068878	2016_May_03_1203	60.0146520147	Gestalt_exp1	1	9010		27
604		Inverted-Gestalt	images/k19.bmp	images/INVk19.bmp					0.0	36.0	36.0	65.0							right	1.0	right	0.550347805023	2016_May_03_1203	60.0146520147	Gestalt_exp1	1	9010		19
605		Inverted-Gestalt	images/k06.bmp	images/INVk06.bmp					0.0	37.0	37.0	57.0							left	0.0	right	0.616039037704	2016_May_03_1203	60.0146520147	Gestalt_exp1	1	9010		06
606		Gestalt-scrambled	images/i05.bmp	images/k05.bmp					0.0	38.0	38.0	4.0							left	1.0	left	0.5834441185	2016_May_03_1203	60.0146520147	Gestalt_exp1	1	9010		05
607		Gestalt-scrambled	images/i15.bmp	images/k15.bmp					0.0	39.0	39.0	14.0							left	0.0	right	0.5168800354	2016_May_03_1203	60.0146520147	Gestalt_exp1	1	9010		15
608		Inverted-scrambled	images/i21.bmp	images/INVk21.bmp					0.0	40.0	40.0	43.0							right	0.0	left	0.333487987518	2016_May_03_1203	60.0146520147	Gestalt_exp1	1	9010		21
609		Gestalt-scrambled	images/i07.bmp	images/k07.bmp					0.0	41.0	41.0	6.0							right	0.0	left	0.516694068909	2016_May_03_1203	60.0146520147	Gestalt_exp1	1	9010		07
610		Inverted-scrambled	images/i04.bmp	images/INVk04.bmp					0.0	42.0	42.0	32.0							right	1.0	right	0.533485889435	2016_May_03_1203	60.0146520147	Gestalt_exp1	1	9010		04
611		Gestalt-scrambled	images/i26.bmp	images/k26.bmp					0.0	43.0	43.0	25.0							left	1.0	left	0.516106843948	2016_May_03_1203	60.0146520147	Gestalt_exp1	1	9010		26
612		Inverted-Gestalt	images/k14.bmp	images/INVk14.bmp					0.0	44.0	44.0	61.0							left	1.0	left	0.583407878876	2016_May_03_1203	60.0146520147	Gestalt_exp1	1	9010		14
613		Inverted-Gestalt	images/k16.bmp	images/INVk16.bmp					0.0	45.0	45.0	63.0							right	0.0	left	0.449926137924	2016_May_03_1203	60.0146520147	Gestalt_exp1	1	9010		16
614		Inverted-Gestalt	images/k23.bmp	images/INVk23.bmp					0.0	46.0	46.0	68.0							left	0.0	right	0.600175857544	2016_May_03_1203	60.0146520147	Gestalt_exp1	1	9010		23
615		Inverted-scrambled	images/i25.bmp	images/INVk25.bmp					0.0	47.0	47.0	47.0							right	0.0	left	0.366657018661	2016_May_03_1203	60.0146520147	Gestalt_exp1	1	9010		25
616		Gestalt-scrambled	images/i25.bmp	images/k25.bmp					0.0	48.0	48.0	24.0							right	0.0	left	0.633255958557	2016_May_03_1203	60.0146520147	Gestalt_exp1	1	9010		25
617		Inverted-Gestalt	images/k09.bmp	images/INVk09.bmp					0.0	49.0	49.0	58.0							left	1.0	left	0.700163125992	2016_May_03_1203	60.0146520147	Gestalt_exp1	1	9010		09
618		Inverted-scrambled	images/i30.bmp	images/INVk30.bmp					0.0	50.0	50.0	52.0							right	1.0	right	0.6173620224	2016_May_03_1203	60.0146520147	Gestalt_exp1	1	9010		30
619		Gestalt-scrambled	images/i10.bmp	images/k10.bmp					0.0	51.0	51.0	9.0							left	1.0	left	0.583552837372	2016_May_03_1203	60.0146520147	Gestalt_exp1	1	9010		10
620		Inverted-scrambled	images/i18.bmp	images/INVk18.bmp					0.0	52.0	52.0	41.0							right	0.0	left	0.36683011055	2016_May_03_1203	60.0146520147	Gestalt_exp1	1	9010		18
621		Gestalt-scrambled	images/i21.bmp	images/k21.bmp					0.0	53.0	53.0	20.0							right	0.0	left	0.416818141937	2016_May_03_1203	60.0146520147	Gestalt_exp1	1	9010		21
622		Inverted-Gestalt	images/k02.bmp	images/INVk03.bmp					0.0	54.0	54.0	54.0							right	0.0	left	0.516106128693	2016_May_03_1203	60.0146520147	Gestalt_exp1	1	9010		03
623		Inverted-Gestalt	images/k26.bmp	images/INVk26.bmp					0.0	55.0	55.0	71.0							right	0.0	left	0.683643102646	2016_May_03_1203	60.0146520147	Gestalt_exp1	1	9010		26
624		Gestalt-scrambled	images/i19.bmp	images/k19.bmp					0.0	56.0	56.0	18.0							right	1.0	right	0.566806077957	2016_May_03_1203	60.0146520147	Gestalt_exp1	1	9010		19
625		Inverted-scrambled	images/i05.bmp	images/INVk05.bmp					0.0	57.0	57.0	33.0							left	1.0	left	0.500186920166	2016_May_03_1203	60.0146520147	Gestalt_exp1	1	9010		05
626		Inverted-scrambled	images/i15.bmp	images/INVk15.bmp					0.0	58.0	58.0	39.0							left	0.0	right	0.800263166428	2016_May_03_1203	60.0146520147	Gestalt_exp1	1	9010		15
627		Inverted-Gestalt	images/k30.bmp	images/INVk30.bmp					0.0	59.0	59.0	75.0							left	1.0	left	0.60027384758	2016_May_03_1203	60.0146520147	Gestalt_exp1	1	9010		30
628		Inverted-Gestalt	images/k04.bmp	images/INVk04.bmp					0.0	60.0	60.0	55.0							left	1.0	left	0.71705198288	2016_May_03_1203	60.0146520147	Gestalt_exp1	1	9010		04
629		Inverted-Gestalt	images/k22.bmp	images/INVk22.bmp					0.0	61.0	61.0	67.0							left	1.0	left	0.60018992424	2016_May_03_1203	60.0146520147	Gestalt_exp1	1	9010		22
630		Gestalt-scrambled	images/i18.bmp	images/k18.bmp					0.0	62.0	62.0	17.0							left	0.0	right	0.717046022415	2016_May_03_1203	60.0146520147	Gestalt_exp1	1	9010		18
631		Gestalt-scrambled	images/i30.bmp	images/k30.bmp					0.0	63.0	63.0	29.0							right	0.0	left	0.61608505249	2016_May_03_1203	60.0146520147	Gestalt_exp1	1	9010		30
632		Inverted-Gestalt	images/k28.bmp	images/INVk28.bmp					0.0	64.0	64.0	73.0							left	1.0	left	0.616852998734	2016_May_03_1203	60.0146520147	Gestalt_exp1	1	9010		28
633		Gestalt-scrambled	images/i27.bmp	images/k27.bmp					0.0	65.0	65.0	26.0							right	1.0	right	0.633311033249	2016_May_03_1203	60.0146520147	Gestalt_exp1	1	9010		27
634		Inverted-Gestalt	images/k25.bmp	images/INVk25.bmp					0.0	66.0	66.0	70.0							left	1.0	left	0.683728218079	2016_May_03_1203	60.0146520147	Gestalt_exp1	1	9010		25
635		Gestalt-scrambled	images/i08.bmp	images/k08.bmp					0.0	67.0	67.0	7.0							right	0.0	left	0.683283090591	2016_May_03_1203	60.0146520147	Gestalt_exp1	1	9010		08
636		Inverted-scrambled	images/i14.bmp	images/INVk14.bmp					0.0	68.0	68.0	38.0							left	0.0	right	1.00024604797	2016_May_03_1203	60.0146520147	Gestalt_exp1	1	9010		14
637		Gestalt-scrambled	images/i06.bmp	images/k06.bmp					0.0	69.0	69.0	5.0							left	0.0	right	0.933619022369	2016_May_03_1203	60.0146520147	Gestalt_exp1	1	9010		06
638		Gestalt-scrambled	images/i11.bmp	images/k11.bmp					0.0	70.0	70.0	10.0							right	0.0	left	0.682976007462	2016_May_03_1203	60.0146520147	Gestalt_exp1	1	9010		11
639		Inverted-Gestalt	images/k12.bmp	images/INVk12.bmp					0.0	71.0	71.0	60.0							right	0.0	left	0.500169992447	2016_May_03_1203	60.0146520147	Gestalt_exp1	1	9010		12
640		Gestalt-scrambled	images/i04.bmp	images/k04.bmp					0.0	72.0	72.0	3.0							left	0.0	right	0.583461999893	2016_May_03_1203	60.0146520147	Gestalt_exp1	1	9010		04
641		Gestalt-scrambled	images/i17.bmp	images/k17.bmp					0.0	73.0	73.0	16.0							right	0.0	left	0.566627025604	2016_May_03_1203	60.0146520147	Gestalt_exp1	1	9010		17
642		Gestalt-scrambled	images/i03.bmp	images/k03.bmp					0.0	74.0	74.0	2.0							right	0.0	left	0.61684513092	2016_May_03_1203	60.0146520147	Gestalt_exp1	1	9010		03
643		Inverted-Gestalt	images/k29.bmp	images/INVk29.bmp					0.0	75.0	75.0	74.0							left	1.0	left	0.967015028	2016_May_03_1203	60.0146520147	Gestalt_exp1	1	9010		29
729		Inverted-Gestalt	images/k12.bmp	images/INVk12.bmp					0.0	0.0	0.0	60.0							left	1.0	left	5.53678393364	2016_Sep_19_1511	59.8884276929	Gestalt_exp1	1	11485		12
730		Inverted-Gestalt	images/k21.bmp	images/INVk21.bmp					0.0	1.0	1.0	66.0							right	0.0	left	0.18367099762	2016_Sep_19_1511	59.8884276929	Gestalt_exp1	1	11485		21
731		Gestalt-scrambled	images/i05.bmp	images/k05.bmp					0.0	2.0	2.0	4.0							left	0.0	right	0.15042591095	2016_Sep_19_1511	59.8884276929	Gestalt_exp1	1	11485		05
732		Inverted-Gestalt	images/k05.bmp	images/INVk05.bmp					0.0	3.0	3.0	56.0							left	0.0	right	0.383316040039	2016_Sep_19_1511	59.8884276929	Gestalt_exp1	1	11485		05
733		Inverted-scrambled	images/i15.bmp	images/INVk15.bmp					0.0	4.0	4.0	39.0							right	0.0	left	0.0502378940582	2016_Sep_19_1511	59.8884276929	Gestalt_exp1	1	11485		15
734		Gestalt-scrambled	images/i29.bmp	images/k29.bmp					0.0	5.0	5.0	28.0							left	0.0	right	0.417032957077	2016_Sep_19_1511	59.8884276929	Gestalt_exp1	1	11485		29
735		Gestalt-scrambled	images/i22.bmp	images/k22.bmp					0.0	6.0	6.0	21.0							right	0.0	left	0.0504229068756	2016_Sep_19_1511	59.8884276929	Gestalt_exp1	1	11485		22
736		Gestalt-scrambled	images/i09.bmp	images/k09.bmp					0.0	7.0	7.0	8.0							right	0.0	left	0.43294095993	2016_Sep_19_1511	59.8884276929	Gestalt_exp1	1	11485		09
737		Inverted-Gestalt	images/k02.bmp	images/INVk03.bmp					0.0	8.0	8.0	54.0							right	1.0	right	0.433628082275	2016_Sep_19_1511	59.8884276929	Gestalt_exp1	1	11485		03
738		Inverted-scrambled	images/i16.bmp	images/INVk16.bmp					0.0	9.0	9.0	40.0							right	1.0	right	0.483461856842	2016_Sep_19_1511	59.8884276929	Gestalt_exp1	1	11485		16
739		Inverted-Gestalt	images/k24.bmp	images/INVk24.bmp					0.0	10.0	10.0	69.0							right	0.0	left	0.917514801025	2016_Sep_19_1511	59.8884276929	Gestalt_exp1	1	11485		24
740		Gestalt-scrambled	images/i13.bmp	images/k13.bmp					0.0	11.0	11.0	12.0							right	1.0	right	1.53346300125	2016_Sep_19_1511	59.8884276929	Gestalt_exp1	1	11485		13
741		Inverted-Gestalt	images/k26.bmp	images/INVk26.bmp					0.0	12.0	12.0	71.0							left	1.0	left	0.600482940674	2016_Sep_19_1511	59.8884276929	Gestalt_exp1	1	11485		26
742		Gestalt-scrambled	images/i18.bmp	images/k18.bmp					0.0	13.0	13.0	17.0							right	1.0	right	0.166646957397	2016_Sep_19_1511	59.8884276929	Gestalt_exp1	1	11485		18
743		Inverted-Gestalt	images/k06.bmp	images/INVk06.bmp					0.0	14.0	14.0	57.0							left	1.0	left	0.300348043442	2016_Sep_19_1511	59.8884276929	Gestalt_exp1	1	11485		06
744		Inverted-scrambled	images/i21.bmp	images/INVk21.bmp					0.0	15.0	15.0	43.0							left	0.0	right	0.700697183609	2016_Sep_19_1511	59.8884276929	Gestalt_exp1	1	11485		21
745		Inverted-Gestalt	images/k01.bmp	images/INVk01.bmp					0.0	16.0	16.0	53.0							right	1.0	right	1.0840690136	2016_Sep_19_1511	59.8884276929	Gestalt_exp1	1	11485		01
746		Inverted-scrambled	images/i28.bmp	images/INVk28.bmp					0.0	17.0	17.0	50.0							right	1.0	right	0.449634075165	2016_Sep_19_1511	59.8884276929	Gestalt_exp1	1	11485		28
747		Gestalt-scrambled	images/i17.bmp	images/k17.bmp					0.0	18.0	18.0	16.0							right	0.0	left	0.73447394371	2016_Sep_19_1511	59.8884276929	Gestalt_exp1	1	11485		17
748		Inverted-Gestalt	images/k25.bmp	images/INVk25.bmp					0.0	19.0	19.0	70.0							left	1.0	left	0.517151832581	2016_Sep_19_1511	59.8884276929	Gestalt_exp1	1	11485		25
749		Gestalt-scrambled	images/i11.bmp	images/k11.bmp					0.0	20.0	20.0	10.0							left	0.0	right	0.617206096649	2016_Sep_19_1511	59.8884276929	Gestalt_exp1	1	11485		11
750		Inverted-Gestalt	images/k16.bmp	images/INVk16.bmp					0.0	21.0	21.0	63.0							right	0.0	left	0.416846990585	2016_Sep_19_1511	59.8884276929	Gestalt_exp1	1	11485		16
751		Gestalt-scrambled	images/i27.bmp	images/k27.bmp					0.0	22.0	22.0	26.0							left	0.0	right	0.767956018448	2016_Sep_19_1511	59.8884276929	Gestalt_exp1	1	11485		27
752		Gestalt-scrambled	images/i03.bmp	images/k03.bmp					0.0	23.0	23.0	2.0							right	0.0	left	0.0671610832214	2016_Sep_19_1511	59.8884276929	Gestalt_exp1	1	11485		03
753		Gestalt-scrambled	images/i10.bmp	images/k10.bmp					0.0	24.0	24.0	9.0							right	0.0	left	3.71863818169	2016_Sep_19_1511	59.8884276929	Gestalt_exp1	1	11485		10
754		Gestalt-scrambled	images/i15.bmp	images/k15.bmp					0.0	25.0	25.0	14.0							right	1.0	right	0.534601926804	2016_Sep_19_1511	59.8884276929	Gestalt_exp1	1	11485		15
755		Gestalt-scrambled	images/i01.bmp	images/k01.bmp					0.0	26.0	26.0	0.0							right	0.0	left	0.400366067886	2016_Sep_19_1511	59.8884276929	Gestalt_exp1	1	11485		01
756		Inverted-Gestalt	images/k18.bmp	images/INVk18.bmp					0.0	27.0	27.0	64.0							right	1.0	right	0.417114973068	2016_Sep_19_1511	59.8884276929	Gestalt_exp1	1	11485		18
757		Inverted-Gestalt	images/k04.bmp	images/INVk04.bmp					0.0	28.0	28.0	55.0							left	1.0	left	0.40052986145	2016_Sep_19_1511	59.8884276929	Gestalt_exp1	1	11485		04
758		Inverted-scrambled	images/i27.bmp	images/INVk27.bmp					0.0	29.0	29.0	49.0							right	0.0	left	0.216962099075	2016_Sep_19_1511	59.8884276929	Gestalt_exp1	1	11485		27
759		Inverted-Gestalt	images/k27.bmp	images/INVk27.bmp					0.0	30.0	30.0	72.0							left	0.0	right	0.784314155579	2016_Sep_19_1511	59.8884276929	Gestalt_exp1	1	11485		27
760		Inverted-scrambled	images/i05.bmp	images/INVk05.bmp					0.0	31.0	31.0	33.0							right	1.0	right	0.516907930374	2016_Sep_19_1511	59.8884276929	Gestalt_exp1	1	11485		05
761		Inverted-scrambled	images/i01.bmp	images/INVk01.bmp					0.0	32.0	32.0	30.0							left	1.0	left	0.467065095901	2016_Sep_19_1511	59.8884276929	Gestalt_exp1	1	11485		01
762		Inverted-Gestalt	images/k22.bmp	images/INVk22.bmp					0.0	33.0	33.0	67.0							right	0.0	left	0.383656978607	2016_Sep_19_1511	59.8884276929	Gestalt_exp1	1	11485		22
763		Gestalt-scrambled	images/i12.bmp	images/k12.bmp					0.0	34.0	34.0	11.0							right	1.0	right	0.451133012772	2016_Sep_19_1511	59.8884276929	Gestalt_exp1	1	11485		12
764		Inverted-Gestalt	images/k15.bmp	images/INVk15.bmp					0.0	35.0	35.0	62.0							left	1.0	left	0.733880996704	2016_Sep_19_1511	59.8884276929	Gestalt_exp1	1	11485		15
765		Inverted-Gestalt	images/k30.bmp	images/INVk30.bmp					0.0	36.0	36.0	75.0							right	0.0	left	0.116922855377	2016_Sep_19_1511	59.8884276929	Gestalt_exp1	1	11485		30
766		Gestalt-scrambled	images/i07.bmp	images/k07.bmp					0.0	37.0	37.0	6.0							left	0.0	right	0.467077970505	2016_Sep_19_1511	59.8884276929	Gestalt_exp1	1	11485		07
767		Inverted-scrambled	images/i26.bmp	images/INVk26.bmp					0.0	38.0	38.0	48.0							right	1.0	right	0.116374015808	2016_Sep_19_1511	59.8884276929	Gestalt_exp1	1	11485		26
768		Inverted-scrambled	images/i06.bmp	images/INVk06.bmp					0.0	39.0	39.0	34.0							right	1.0	right	0.167153835297	2016_Sep_19_1511	59.8884276929	Gestalt_exp1	1	11485		06
769		Gestalt-scrambled	images/i23.bmp	images/k23.bmp					0.0	40.0	40.0	22.0							right	0.0	left	0.567057847977	2016_Sep_19_1511	59.8884276929	Gestalt_exp1	1	11485		23
770		Gestalt-scrambled	images/i26.bmp	images/k26.bmp					0.0	41.0	41.0	25.0							right	0.0	left	0.4504301548	2016_Sep_19_1511	59.8884276929	Gestalt_exp1	1	11485		26
771		Gestalt-scrambled	images/i28.bmp	images/k28.bmp					0.0	42.0	42.0	27.0							left	0.0	right	0.649456977844	2016_Sep_19_1511	59.8884276929	Gestalt_exp1	1	11485		28
772		Gestalt-scrambled	images/i30.bmp	images/k30.bmp					0.0	43.0	43.0	29.0							left	1.0	left	0.733294963837	2016_Sep_19_1511	59.8884276929	Gestalt_exp1	1	11485		30
773		Inverted-Gestalt	images/k19.bmp	images/INVk19.bmp					0.0	44.0	44.0	65.0							left	0.0	right	0.733721971512	2016_Sep_19_1511	59.8884276929	Gestalt_exp1	1	11485		19
774		Inverted-scrambled	images/i29.bmp	images/INVk29.bmp					0.0	45.0	45.0	51.0							right	0.0	left	0.100180149078	2016_Sep_19_1511	59.8884276929	Gestalt_exp1	1	11485		29
775		Inverted-scrambled	images/i23.bmp	images/INVk23.bmp					0.0	46.0	46.0	45.0							left	1.0	left	0.450891971588	2016_Sep_19_1511	59.8884276929	Gestalt_exp1	1	11485		23
776		Inverted-scrambled	images/i19.bmp	images/INVk19.bmp					0.0	47.0	47.0	42.0							right	0.0	left	0.783471822739	2016_Sep_19_1511	59.8884276929	Gestalt_exp1	1	11485		19
777		Inverted-Gestalt	images/k14.bmp	images/INVk14.bmp					0.0	48.0	48.0	61.0							left	0.0	right	0.450930118561	2016_Sep_19_1511	59.8884276929	Gestalt_exp1	1	11485		14
778		Inverted-Gestalt	images/k10.bmp	images/INVk10.bmp					0.0	49.0	49.0	59.0							right	1.0	right	0.867132902145	2016_Sep_19_1511	59.8884276929	Gestalt_exp1	1	11485		10
779		Gestalt-scrambled	images/i20.bmp	images/k20.bmp					0.0	50.0	50.0	19.0							right	0.0	left	0.150379896164	2016_Sep_19_1511	59.8884276929	Gestalt_exp1	1	11485		20
780		Gestalt-scrambled	images/i08.bmp	images/k08.bmp					0.0	51.0	51.0	7.0							left	0.0	right	0.600201129913	2016_Sep_19_1511	59.8884276929	Gestalt_exp1	1	11485		08
781		Gestalt-scrambled	images/i19.bmp	images/k19.bmp					0.0	52.0	52.0	18.0							right	0.0	left	0.166800022125	2016_Sep_19_1511	59.8884276929	Gestalt_exp1	1	11485		19
782		Inverted-scrambled	images/i22.bmp	images/INVk22.bmp					0.0	53.0	53.0	44.0							left	0.0	right	0.517062902451	2016_Sep_19_1511	59.8884276929	Gestalt_exp1	1	11485		22
783		Inverted-scrambled	images/i24.bmp	images/INVk24.bmp					0.0	54.0	54.0	46.0							left	0.0	right	0.600155830383	2016_Sep_19_1511	59.8884276929	Gestalt_exp1	1	11485		24
784		Gestalt-scrambled	images/i06.bmp	images/k06.bmp					0.0	55.0	55.0	5.0							right	0.0	left	0.900045156479	2016_Sep_19_1511	59.8884276929	Gestalt_exp1	1	11485		06
785		Inverted-scrambled	images/i02.bmp	images/INVk03.bmp					0.0	56.0	56.0	31.0							right	1.0	right	0.96683216095	2016_Sep_19_1511	59.8884276929	Gestalt_exp1	1	11485		03
786		Inverted-Gestalt	images/k29.bmp	images/INVk29.bmp					0.0	57.0	57.0	74.0							left	1.0	left	0.600188016891	2016_Sep_19_1511	59.8884276929	Gestalt_exp1	1	11485		29
787		Inverted-scrambled	images/i12.bmp	images/INVk12.bmp					0.0	58.0	58.0	37.0							right	1.0	right	1.10026192665	2016_Sep_19_1511	59.8884276929	Gestalt_exp1	1	11485		12
788		Inverted-scrambled	images/i09.bmp	images/INVk09.bmp					0.0	59.0	59.0	35.0							right	0.0	left	0.149439096451	2016_Sep_19_1511	59.8884276929	Gestalt_exp1	1	11485		09
789		Inverted-scrambled	images/i18.bmp	images/INVk18.bmp					0.0	60.0	60.0	41.0							right	0.0	left	0.350023984909	2016_Sep_19_1511	59.8884276929	Gestalt_exp1	1	11485		18
790		Gestalt-scrambled	images/i02.bmp	images/k02.bmp					0.0	61.0	61.0	1.0							right	0.0	left	0.349949121475	2016_Sep_19_1511	59.8884276929	Gestalt_exp1	1	11485		02
791		Inverted-scrambled	images/i14.bmp	images/INVk14.bmp					0.0	62.0	62.0	38.0							right	0.0	left	0.650902032852	2016_Sep_19_1511	59.8884276929	Gestalt_exp1	1	11485		14
792		Gestalt-scrambled	images/i04.bmp	images/k04.bmp					0.0	63.0	63.0	3.0							right	1.0	right	0.316864013672	2016_Sep_19_1511	59.8884276929	Gestalt_exp1	1	11485		04
793		Inverted-Gestalt	images/k28.bmp	images/INVk28.bmp					0.0	64.0	64.0	73.0							left	0.0	right	0.683506011963	2016_Sep_19_1511	59.8884276929	Gestalt_exp1	1	11485		28
794		Inverted-scrambled	images/i10.bmp	images/INVk10.bmp					0.0	65.0	65.0	36.0							right	0.0	left	0.132697820663	2016_Sep_19_1511	59.8884276929	Gestalt_exp1	1	11485		10
795		Inverted-Gestalt	images/k09.bmp	images/INVk09.bmp					0.0	66.0	66.0	58.0							right	0.0	left	0.350158929825	2016_Sep_19_1511	59.8884276929	Gestalt_exp1	1	11485		09
796		Gestalt-scrambled	images/i14.bmp	images/k14.bmp					0.0	67.0	67.0	13.0							right	1.0	right	0.383497953415	2016_Sep_19_1511	59.8884276929	Gestalt_exp1	1	11485		14
797		Inverted-Gestalt	images/k23.bmp	images/INVk23.bmp					0.0	68.0	68.0	68.0							left	0.0	right	0.63409113884	2016_Sep_19_1511	59.8884276929	Gestalt_exp1	1	11485		23
798		Gestalt-scrambled	images/i16.bmp	images/k16.bmp					0.0	69.0	69.0	15.0							right	1.0	right	0.183584928513	2016_Sep_19_1511	59.8884276929	Gestalt_exp1	1	11485		16
799		Inverted-scrambled	images/i25.bmp	images/INVk25.bmp					0.0	70.0	70.0	47.0							right	1.0	right	0.166865110397	2016_Sep_19_1511	59.8884276929	Gestalt_exp1	1	11485		25
800		Gestalt-scrambled	images/i21.bmp	images/k21.bmp					0.0	71.0	71.0	20.0							right	0.0	left	0.383543968201	2016_Sep_19_1511	59.8884276929	Gestalt_exp1	1	11485		21
801		Gestalt-scrambled	images/i25.bmp	images/k25.bmp					0.0	72.0	72.0	24.0							right	0.0	left	0.41704082489	2016_Sep_19_1511	59.8884276929	Gestalt_exp1	1	11485		25
802		Gestalt-scrambled	images/i24.bmp	images/k24.bmp					0.0	73.0	73.0	23.0							left	0.0	right	0.367110967636	2016_Sep_19_1511	59.8884276929	Gestalt_exp1	1	11485		24
803		Inverted-scrambled	images/i30.bmp	images/INVk30.bmp					0.0	74.0	74.0	52.0							right	0.0	left	0.350201845169	2016_Sep_19_1511	59.8884276929	Gestalt_exp1	1	11485		30
804		Inverted-scrambled	images/i04.bmp	images/INVk04.bmp					0.0	75.0	75.0	32.0							right	1.0	right	0.49967622757	2016_Sep_19_1511	59.8884276929	Gestalt_exp1	1	11485		04
890		Gestalt-scrambled	images/i01.bmp	images/k01.bmp					0.0	0.0	0.0	0.0							right	0.0	left	1.56667113304	2016_Apr_15_1205	59.8039758064	Gestalt_exp1	1	11707		01
891		Gestalt-scrambled	images/i21.bmp	images/k21.bmp					0.0	1.0	1.0	20.0							left	0.0	right	1.23313212395	2016_Apr_15_1205	59.8039758064	Gestalt_exp1	1	11707		21
892		Inverted-scrambled	images/i15.bmp	images/INVk15.bmp					0.0	2.0	2.0	39.0							right	0.0	left	0.483505010605	2016_Apr_15_1205	59.8039758064	Gestalt_exp1	1	11707		15
893		Gestalt-scrambled	images/i20.bmp	images/k20.bmp					0.0	3.0	3.0	19.0							left	1.0	left	0.766644001007	2016_Apr_15_1205	59.8039758064	Gestalt_exp1	1	11707		20
894		Inverted-Gestalt	images/k01.bmp	images/INVk01.bmp					0.0	4.0	4.0	53.0							left	1.0	left	0.749925851822	2016_Apr_15_1205	59.8039758064	Gestalt_exp1	1	11707		01
895		Inverted-scrambled	images/i30.bmp	images/INVk30.bmp					0.0	5.0	5.0	52.0							left	0.0	right	1.26651191711	2016_Apr_15_1205	59.8039758064	Gestalt_exp1	1	11707		30
896		Inverted-Gestalt	images/k16.bmp	images/INVk16.bmp					0.0	6.0	6.0	63.0							right	0.0	left	0.383366823196	2016_Apr_15_1205	59.8039758064	Gestalt_exp1	1	11707		16
897		Inverted-Gestalt	images/k18.bmp	images/INVk18.bmp					0.0	7.0	7.0	64.0							right	0.0	left	0.700186014175	2016_Apr_15_1205	59.8039758064	Gestalt_exp1	1	11707		18
898		Inverted-scrambled	images/i14.bmp	images/INVk14.bmp					0.0	8.0	8.0	38.0							right	0.0	left	0.967073917389	2016_Apr_15_1205	59.8039758064	Gestalt_exp1	1	11707		14
899		Inverted-Gestalt	images/k30.bmp	images/INVk30.bmp					0.0	9.0	9.0	75.0							right	1.0	right	0.567086935043	2016_Apr_15_1205	59.8039758064	Gestalt_exp1	1	11707		30
900		Inverted-scrambled	images/i21.bmp	images/INVk21.bmp					0.0	10.0	10.0	43.0							left	1.0	left	1.50022697449	2016_Apr_15_1205	59.8039758064	Gestalt_exp1	1	11707		21
901		Gestalt-scrambled	images/i05.bmp	images/k05.bmp					0.0	11.0	11.0	4.0							right	0.0	left	0.100221157074	2016_Apr_15_1205	59.8039758064	Gestalt_exp1	1	11707		05
902		Gestalt-scrambled	images/i24.bmp	images/k24.bmp					0.0	12.0	12.0	23.0							left	0.0	right	0.483333826065	2016_Apr_15_1205	59.8039758064	Gestalt_exp1	1	11707		24
903		Inverted-Gestalt	images/k12.bmp	images/INVk12.bmp					0.0	13.0	13.0	60.0							right	1.0	right	0.449520111084	2016_Apr_15_1205	59.8039758064	Gestalt_exp1	1	11707		12
904		Inverted-Gestalt	images/k28.bmp	images/INVk28.bmp					0.0	14.0	14.0	73.0							right	0.0	left	0.54985499382	2016_Apr_15_1205	59.8039758064	Gestalt_exp1	1	11707		28
905		Inverted-scrambled	images/i16.bmp	images/INVk16.bmp					0.0	15.0	15.0	40.0							left	0.0	right	0.51685500145	2016_Apr_15_1205	59.8039758064	Gestalt_exp1	1	11707		16
906		Inverted-scrambled	images/i12.bmp	images/INVk12.bmp					0.0	16.0	16.0	37.0							right	0.0	left	0.416806221008	2016_Apr_15_1205	59.8039758064	Gestalt_exp1	1	11707		12
907		Inverted-Gestalt	images/k24.bmp	images/INVk24.bmp					0.0	17.0	17.0	69.0							right	1.0	right	0.499983072281	2016_Apr_15_1205	59.8039758064	Gestalt_exp1	1	11707		24
908		Inverted-scrambled	images/i28.bmp	images/INVk28.bmp					0.0	18.0	18.0	50.0							right	1.0	right	0.616092920303	2016_Apr_15_1205	59.8039758064	Gestalt_exp1	1	11707		28
909		Inverted-Gestalt	images/k10.bmp	images/INVk10.bmp					0.0	19.0	19.0	59.0							left	0.0	right	0.75094294548	2016_Apr_15_1205	59.8039758064	Gestalt_exp1	1	11707		10
910		Inverted-scrambled	images/i24.bmp	images/INVk24.bmp					0.0	20.0	20.0	46.0							left	0.0	right	0.433500051498	2016_Apr_15_1205	59.8039758064	Gestalt_exp1	1	11707		24
911		Gestalt-scrambled	images/i15.bmp	images/k15.bmp					0.0	21.0	21.0	14.0							left	0.0	right	0.416090011597	2016_Apr_15_1205	59.8039758064	Gestalt_exp1	1	11707		15
912		Gestalt-scrambled	images/i26.bmp	images/k26.bmp					0.0	22.0	22.0	25.0							right	0.0	left	0.000185012817383	2016_Apr_15_1205	59.8039758064	Gestalt_exp1	1	11707		26
913		Inverted-scrambled	images/i18.bmp	images/INVk18.bmp					0.0	23.0	23.0	41.0							right	1.0	right	0.532753944397	2016_Apr_15_1205	59.8039758064	Gestalt_exp1	1	11707		18
914		Inverted-scrambled	images/i04.bmp	images/INVk04.bmp					0.0	24.0	24.0	32.0							right	1.0	right	0.0337381362915	2016_Apr_15_1205	59.8039758064	Gestalt_exp1	1	11707		04
915		Inverted-Gestalt	images/k19.bmp	images/INVk19.bmp					0.0	25.0	25.0	65.0							right	1.0	right	0.367081880569	2016_Apr_15_1205	59.8039758064	Gestalt_exp1	1	11707		19
916		Gestalt-scrambled	images/i11.bmp	images/k11.bmp					0.0	26.0	26.0	10.0							left	0.0	right	0.450381040573	2016_Apr_15_1205	59.8039758064	Gestalt_exp1	1	11707		11
917		Inverted-scrambled	images/i27.bmp	images/INVk27.bmp					0.0	27.0	27.0	49.0							right	1.0	right	0.350069046021	2016_Apr_15_1205	59.8039758064	Gestalt_exp1	1	11707		27
918		Inverted-scrambled	images/i02.bmp	images/INVk03.bmp					0.0	28.0	28.0	31.0							left	1.0	left	0.299679994583	2016_Apr_15_1205	59.8039758064	Gestalt_exp1	1	11707		03
919		Inverted-Gestalt	images/k26.bmp	images/INVk26.bmp					0.0	29.0	29.0	71.0							right	1.0	right	0.51676607132	2016_Apr_15_1205	59.8039758064	Gestalt_exp1	1	11707		26
920		Inverted-Gestalt	images/k14.bmp	images/INVk14.bmp					0.0	30.0	30.0	61.0							left	0.0	right	0.433527946472	2016_Apr_15_1205	59.8039758064	Gestalt_exp1	1	11707		14
921		Gestalt-scrambled	images/i30.bmp	images/k30.bmp					0.0	31.0	31.0	29.0							left	0.0	right	0.267580986023	2016_Apr_15_1205	59.8039758064	Gestalt_exp1	1	11707		30
922		Inverted-Gestalt	images/k23.bmp	images/INVk23.bmp					0.0	32.0	32.0	68.0							right	0.0	left	0.35053896904	2016_Apr_15_1205	59.8039758064	Gestalt_exp1	1	11707		23
923		Gestalt-scrambled	images/i25.bmp	images/k25.bmp					0.0	33.0	33.0	24.0							left	0.0	right	0.649427175522	2016_Apr_15_1205	59.8039758064	Gestalt_exp1	1	11707		25
924		Inverted-Gestalt	images/k29.bmp	images/INVk29.bmp					0.0	34.0	34.0	74.0							left	0.0	right	0.166680812836	2016_Apr_15_1205	59.8039758064	Gestalt_exp1	1	11707		29
925		Gestalt-scrambled	images/i18.bmp	images/k18.bmp					0.0	35.0	35.0	17.0							right	0.0	left	3.33328580856	2016_Apr_15_1205	59.8039758064	Gestalt_exp1	1	11707		18
926		Inverted-scrambled	images/i23.bmp	images/INVk23.bmp					0.0	36.0	36.0	45.0							right	0.0	left	0.616849899292	2016_Apr_15_1205	59.8039758064	Gestalt_exp1	1	11707		23
927		Gestalt-scrambled	images/i27.bmp	images/k27.bmp					0.0	37.0	37.0	26.0							left	0.0	right	0.566098928452	2016_Apr_15_1205	59.8039758064	Gestalt_exp1	1	11707		27
928		Gestalt-scrambled	images/i02.bmp	images/k02.bmp					0.0	38.0	38.0	1.0							left	0.0	right	0.582988977432	2016_Apr_15_1205	59.8039758064	Gestalt_exp1	1	11707		02
929		Inverted-Gestalt	images/k05.bmp	images/INVk05.bmp					0.0	39.0	39.0	56.0							right	0.0	left	0.367102146149	2016_Apr_15_1205	59.8039758064	Gestalt_exp1	1	11707		05
930		Gestalt-scrambled	images/i04.bmp	images/k04.bmp					0.0	40.0	40.0	3.0							right	0.0	left	0.483748912811	2016_Apr_15_1205	59.8039758064	Gestalt_exp1	1	11707		04
931		Gestalt-scrambled	images/i22.bmp	images/k22.bmp					0.0	41.0	41.0	21.0							right	1.0	right	0.650401115417	2016_Apr_15_1205	59.8039758064	Gestalt_exp1	1	11707		22
932		Gestalt-scrambled	images/i16.bmp	images/k16.bmp					0.0	42.0	42.0	15.0							left	0.0	right	1.08430314064	2016_Apr_15_1205	59.8039758064	Gestalt_exp1	1	11707		16
933		Gestalt-scrambled	images/i06.bmp	images/k06.bmp					0.0	43.0	43.0	5.0							right	0.0	left	0.533821105957	2016_Apr_15_1205	59.8039758064	Gestalt_exp1	1	11707		06
934		Inverted-scrambled	images/i10.bmp	images/INVk10.bmp					0.0	44.0	44.0	36.0							left	0.0	right	0.683553934097	2016_Apr_15_1205	59.8039758064	Gestalt_exp1	1	11707		10
935		Gestalt-scrambled	images/i08.bmp	images/k08.bmp					0.0	45.0	45.0	7.0							left	0.0	right	0.500190973282	2016_Apr_15_1205	59.8039758064	Gestalt_exp1	1	11707		08
936		Gestalt-scrambled	images/i29.bmp	images/k29.bmp					0.0	46.0	46.0	28.0							right	1.0	right	0.66685295105	2016_Apr_15_1205	59.8039758064	Gestalt_exp1	1	11707		29
937		Gestalt-scrambled	images/i23.bmp	images/k23.bmp					0.0	47.0	47.0	22.0							left	0.0	right	0.583412885666	2016_Apr_15_1205	59.8039758064	Gestalt_exp1	1	11707		23
938		Inverted-scrambled	images/i25.bmp	images/INVk25.bmp					0.0	48.0	48.0	47.0							right	1.0	right	0.666684865952	2016_Apr_15_1205	59.8039758064	Gestalt_exp1	1	11707		25
939		Gestalt-scrambled	images/i07.bmp	images/k07.bmp					0.0	49.0	49.0	6.0							right	0.0	left	0.600171089172	2016_Apr_15_1205	59.8039758064	Gestalt_exp1	1	11707		07
940		Inverted-scrambled	images/i06.bmp	images/INVk06.bmp					0.0	50.0	50.0	34.0							right	1.0	right	0.949447870255	2016_Apr_15_1205	59.8039758064	Gestalt_exp1	1	11707		06
941		Inverted-Gestalt	images/k21.bmp	images/INVk21.bmp					0.0	51.0	51.0	66.0							right	0.0	left	1.13329291344	2016_Apr_15_1205	59.8039758064	Gestalt_exp1	1	11707		21
942		Inverted-scrambled	images/i01.bmp	images/INVk01.bmp					0.0	52.0	52.0	30.0							left	1.0	left	0.550923109055	2016_Apr_15_1205	59.8039758064	Gestalt_exp1	1	11707		01
943		Inverted-Gestalt	images/k06.bmp	images/INVk06.bmp					0.0	53.0	53.0	57.0							right	1.0	right	0.633697986603	2016_Apr_15_1205	59.8039758064	Gestalt_exp1	1	11707		06
944		Inverted-scrambled	images/i05.bmp	images/INVk05.bmp					0.0	54.0	54.0	33.0							left	0.0	right	0.566728115082	2016_Apr_15_1205	59.8039758064	Gestalt_exp1	1	11707		05
945		Inverted-scrambled	images/i26.bmp	images/INVk26.bmp					0.0	55.0	55.0	48.0							right	0.0	left	1.01661896706	2016_Apr_15_1205	59.8039758064	Gestalt_exp1	1	11707		26
946		Inverted-scrambled	images/i19.bmp	images/INVk19.bmp					0.0	56.0	56.0	42.0							right	0.0	left	0.50017285347	2016_Apr_15_1205	59.8039758064	Gestalt_exp1	1	11707		19
947		Inverted-scrambled	images/i09.bmp	images/INVk09.bmp					0.0	57.0	57.0	35.0							right	0.0	left	0.566619873047	2016_Apr_15_1205	59.8039758064	Gestalt_exp1	1	11707		09
948		Gestalt-scrambled	images/i09.bmp	images/k09.bmp					0.0	58.0	58.0	8.0							left	0.0	right	0.699998855591	2016_Apr_15_1205	59.8039758064	Gestalt_exp1	1	11707		09
949		Gestalt-scrambled	images/i03.bmp	images/k03.bmp					0.0	59.0	59.0	2.0							left	0.0	right	0.900226831436	2016_Apr_15_1205	59.8039758064	Gestalt_exp1	1	11707		03
950		Inverted-Gestalt	images/k04.bmp	images/INVk04.bmp					0.0	60.0	60.0	55.0							right	1.0	right	0.716738939285	2016_Apr_15_1205	59.8039758064	Gestalt_exp1	1	11707		04
951		Gestalt-scrambled	images/i14.bmp	images/k14.bmp					0.0	61.0	61.0	13.0							left	1.0	left	1.29966902733	2016_Apr_15_1205	59.8039758064	Gestalt_exp1	1	11707		14
952		Inverted-Gestalt	images/k02.bmp	images/INVk03.bmp					0.0	62.0	62.0	54.0							left	1.0	left	1.2168598175	2016_Apr_15_1205	59.8039758064	Gestalt_exp1	1	11707		03
953		Gestalt-scrambled	images/i19.bmp	images/k19.bmp					0.0	63.0	63.0	18.0							left	0.0	right	0.533298015594	2016_Apr_15_1205	59.8039758064	Gestalt_exp1	1	11707		19
954		Gestalt-scrambled	images/i10.bmp	images/k10.bmp					0.0	64.0	64.0	9.0							right	0.0	left	0.383544921875	2016_Apr_15_1205	59.8039758064	Gestalt_exp1	1	11707		10
955		Inverted-Gestalt	images/k09.bmp	images/INVk09.bmp					0.0	65.0	65.0	58.0							right	0.0	left	0.683537006378	2016_Apr_15_1205	59.8039758064	Gestalt_exp1	1	11707		09
956		Inverted-Gestalt	images/k27.bmp	images/INVk27.bmp					0.0	66.0	66.0	72.0							right	1.0	right	0.800193071365	2016_Apr_15_1205	59.8039758064	Gestalt_exp1	1	11707		27
957		Inverted-scrambled	images/i29.bmp	images/INVk29.bmp					0.0	67.0	67.0	51.0							right	0.0	left	0.633558034897	2016_Apr_15_1205	59.8039758064	Gestalt_exp1	1	11707		29
958		Gestalt-scrambled	images/i17.bmp	images/k17.bmp					0.0	68.0	68.0	16.0							left	1.0	left	1.06633210182	2016_Apr_15_1205	59.8039758064	Gestalt_exp1	1	11707		17
959		Inverted-Gestalt	images/k15.bmp	images/INVk15.bmp					0.0	69.0	69.0	62.0							right	1.0	right	0.783382892609	2016_Apr_15_1205	59.8039758064	Gestalt_exp1	1	11707		15
960		Inverted-scrambled	images/i22.bmp	images/INVk22.bmp					0.0	70.0	70.0	44.0							right	1.0	right	0.816087961197	2016_Apr_15_1205	59.8039758064	Gestalt_exp1	1	11707		22
961		Gestalt-scrambled	images/i28.bmp	images/k28.bmp					0.0	71.0	71.0	27.0							left	0.0	right	0.500197887421	2016_Apr_15_1205	59.8039758064	Gestalt_exp1	1	11707		28
962		Inverted-Gestalt	images/k25.bmp	images/INVk25.bmp					0.0	72.0	72.0	70.0							left	1.0	left	0.649964094162	2016_Apr_15_1205	59.8039758064	Gestalt_exp1	1	11707		25
963		Gestalt-scrambled	images/i12.bmp	images/k12.bmp					0.0	73.0	73.0	11.0							right	0.0	left	0.600343942642	2016_Apr_15_1205	59.8039758064	Gestalt_exp1	1	11707		12
964		Inverted-Gestalt	images/k22.bmp	images/INVk22.bmp					0.0	74.0	74.0	67.0							left	0.0	right	0.383538961411	2016_Apr_15_1205	59.8039758064	Gestalt_exp1	1	11707		22
965		Gestalt-scrambled	images/i13.bmp	images/k13.bmp					0.0	75.0	75.0	12.0							left	1.0	left	0.516907930374	2016_Apr_15_1205	59.8039758064	Gestalt_exp1	1	11707		13
1051		Inverted-scrambled	images/i25.bmp	images/INVk25.bmp					0.0	0.0	0.0	47.0							left	1.0	left	0.65037894249	2016_Apr_21_1606	59.9297583837	Gestalt_exp1	1	11755		25
1052		Inverted-Gestalt	images/k01.bmp	images/INVk01.bmp					0.0	1.0	1.0	53.0							right	0.0	left	1.01699614525	2016_Apr_21_1606	59.9297583837	Gestalt_exp1	1	11755		01
1053		Inverted-Gestalt	images/k15.bmp	images/INVk15.bmp					0.0	2.0	2.0	62.0							left	1.0	left	0.566830873489	2016_Apr_21_1606	59.9297583837	Gestalt_exp1	1	11755		15
1054		Inverted-Gestalt	images/k26.bmp	images/INVk26.bmp					0.0	3.0	3.0	71.0							right	0.0	left	0.500588178635	2016_Apr_21_1606	59.9297583837	Gestalt_exp1	1	11755		26
1055		Gestalt-scrambled	images/i16.bmp	images/k16.bmp					0.0	4.0	4.0	15.0							right	0.0	left	0.284268856049	2016_Apr_21_1606	59.9297583837	Gestalt_exp1	1	11755		16
1056		Inverted-Gestalt	images/k30.bmp	images/INVk30.bmp					0.0	5.0	5.0	75.0							left	1.0	left	0.300144910812	2016_Apr_21_1606	59.9297583837	Gestalt_exp1	1	11755		30
1057		Gestalt-scrambled	images/i01.bmp	images/k01.bmp					0.0	6.0	6.0	0.0							right	1.0	right	0.299997091293	2016_Apr_21_1606	59.9297583837	Gestalt_exp1	1	11755		01
1058		Gestalt-scrambled	images/i20.bmp	images/k20.bmp					0.0	7.0	7.0	19.0							right	1.0	right	0.61606502533	2016_Apr_21_1606	59.9297583837	Gestalt_exp1	1	11755		20
1059		Gestalt-scrambled	images/i19.bmp	images/k19.bmp					0.0	8.0	8.0	18.0							right	1.0	right	0.233733892441	2016_Apr_21_1606	59.9297583837	Gestalt_exp1	1	11755		19
1060		Inverted-Gestalt	images/k19.bmp	images/INVk19.bmp					0.0	9.0	9.0	65.0							right	0.0	left	0.167105913162	2016_Apr_21_1606	59.9297583837	Gestalt_exp1	1	11755		19
1061		Inverted-Gestalt	images/k05.bmp	images/INVk05.bmp					0.0	10.0	10.0	56.0							right	0.0	left	0.0335741043091	2016_Apr_21_1606	59.9297583837	Gestalt_exp1	1	11755		05
1062		Inverted-scrambled	images/i06.bmp	images/INVk06.bmp					0.0	11.0	11.0	34.0							right	0.0	left	0.401515007019	2016_Apr_21_1606	59.9297583837	Gestalt_exp1	1	11755		06
1063		Inverted-Gestalt	images/k16.bmp	images/INVk16.bmp					0.0	12.0	12.0	63.0							right	1.0	right	0.35044002533	2016_Apr_21_1606	59.9297583837	Gestalt_exp1	1	11755		16
1064		Inverted-scrambled	images/i24.bmp	images/INVk24.bmp					0.0	13.0	13.0	46.0							left	1.0	left	0.766329050064	2016_Apr_21_1606	59.9297583837	Gestalt_exp1	1	11755		24
1065		Gestalt-scrambled	images/i02.bmp	images/k02.bmp					0.0	14.0	14.0	1.0							right	0.0	left	0.45001411438	2016_Apr_21_1606	59.9297583837	Gestalt_exp1	1	11755		02
1066		Inverted-Gestalt	images/k12.bmp	images/INVk12.bmp					0.0	15.0	15.0	60.0							left	0.0	right	0.61739397049	2016_Apr_21_1606	59.9297583837	Gestalt_exp1	1	11755		12
1067		Inverted-scrambled	images/i09.bmp	images/INVk09.bmp					0.0	16.0	16.0	35.0							right	0.0	left	0.367783069611	2016_Apr_21_1606	59.9297583837	Gestalt_exp1	1	11755		09
1068		Inverted-Gestalt	images/k02.bmp	images/INVk03.bmp					0.0	17.0	17.0	54.0							left	0.0	right	0.216933965683	2016_Apr_21_1606	59.9297583837	Gestalt_exp1	1	11755		03
1069		Inverted-Gestalt	images/k06.bmp	images/INVk06.bmp					0.0	18.0	18.0	57.0							right	0.0	left	0.666742086411	2016_Apr_21_1606	59.9297583837	Gestalt_exp1	1	11755		06
1070		Inverted-scrambled	images/i10.bmp	images/INVk10.bmp					0.0	19.0	19.0	36.0							left	0.0	right	0.283340930939	2016_Apr_21_1606	59.9297583837	Gestalt_exp1	1	11755		10
1071		Gestalt-scrambled	images/i06.bmp	images/k06.bmp					0.0	20.0	20.0	5.0							right	1.0	right	8.98838043213e-05	2016_Apr_21_1606	59.9297583837	Gestalt_exp1	1	11755		06
1072		Inverted-scrambled	images/i18.bmp	images/INVk18.bmp					0.0	21.0	21.0	41.0							right	0.0	left	0.0675911903381	2016_Apr_21_1606	59.9297583837	Gestalt_exp1	1	11755		18
1073		Gestalt-scrambled	images/i04.bmp	images/k04.bmp					0.0	22.0	22.0	3.0							right	0.0	left	0.0336060523987	2016_Apr_21_1606	59.9297583837	Gestalt_exp1	1	11755		04
1074		Gestalt-scrambled	images/i11.bmp	images/k11.bmp					0.0	23.0	23.0	10.0							right	0.0	left	5.0829770565	2016_Apr_21_1606	59.9297583837	Gestalt_exp1	1	11755		11
1075		Inverted-scrambled	images/i27.bmp	images/INVk27.bmp					0.0	24.0	24.0	49.0							right	0.0	left	0.416898965836	2016_Apr_21_1606	59.9297583837	Gestalt_exp1	1	11755		27
1076		Gestalt-scrambled	images/i23.bmp	images/k23.bmp					0.0	25.0	25.0	22.0							right	1.0	right	0.116857767105	2016_Apr_21_1606	59.9297583837	Gestalt_exp1	1	11755		23
1077		Gestalt-scrambled	images/i17.bmp	images/k17.bmp					0.0	26.0	26.0	16.0							right	0.0	left	0.0335700511932	2016_Apr_21_1606	59.9297583837	Gestalt_exp1	1	11755		17
1078		Gestalt-scrambled	images/i07.bmp	images/k07.bmp					0.0	27.0	27.0	6.0							left	0.0	right	0.5833568573	2016_Apr_21_1606	59.9297583837	Gestalt_exp1	1	11755		07
1079		Inverted-Gestalt	images/k21.bmp	images/INVk21.bmp					0.0	28.0	28.0	66.0							right	0.0	left	0.349474906921	2016_Apr_21_1606	59.9297583837	Gestalt_exp1	1	11755		21
1080		Inverted-scrambled	images/i30.bmp	images/INVk30.bmp					0.0	29.0	29.0	52.0							right	1.0	right	0.217434883118	2016_Apr_21_1606	59.9297583837	Gestalt_exp1	1	11755		30
1081		Inverted-scrambled	images/i29.bmp	images/INVk29.bmp					0.0	30.0	30.0	51.0							right	0.0	left	0.316946983337	2016_Apr_21_1606	59.9297583837	Gestalt_exp1	1	11755		29
1082		Inverted-scrambled	images/i12.bmp	images/INVk12.bmp					0.0	31.0	31.0	37.0							left	1.0	left	0.216995954514	2016_Apr_21_1606	59.9297583837	Gestalt_exp1	1	11755		12
1083		Gestalt-scrambled	images/i28.bmp	images/k28.bmp					0.0	32.0	32.0	27.0							right	0.0	left	0.233495950699	2016_Apr_21_1606	59.9297583837	Gestalt_exp1	1	11755		28
1084		Inverted-scrambled	images/i28.bmp	images/INVk28.bmp					0.0	33.0	33.0	50.0							right	0.0	left	0.316270112991	2016_Apr_21_1606	59.9297583837	Gestalt_exp1	1	11755		28
1085		Gestalt-scrambled	images/i03.bmp	images/k03.bmp					0.0	34.0	34.0	2.0							right	0.0	left	0.250921964645	2016_Apr_21_1606	59.9297583837	Gestalt_exp1	1	11755		03
1086		Inverted-scrambled	images/i23.bmp	images/INVk23.bmp					0.0	35.0	35.0	45.0							right	0.0	left	0.000195026397705	2016_Apr_21_1606	59.9297583837	Gestalt_exp1	1	11755		23
1087		Gestalt-scrambled	images/i22.bmp	images/k22.bmp					0.0	36.0	36.0	21.0							right	1.0	right	0.0667610168457	2016_Apr_21_1606	59.9297583837	Gestalt_exp1	1	11755		22
1088		Gestalt-scrambled	images/i09.bmp	images/k09.bmp					0.0	37.0	37.0	8.0							left	0.0	right	0.266533136368	2016_Apr_21_1606	59.9297583837	Gestalt_exp1	1	11755		09
1089		Inverted-Gestalt	images/k22.bmp	images/INVk22.bmp					0.0	38.0	38.0	67.0							right	0.0	left	0.0835349559784	2016_Apr_21_1606	59.9297583837	Gestalt_exp1	1	11755		22
1090		Inverted-Gestalt	images/k09.bmp	images/INVk09.bmp					0.0	39.0	39.0	58.0							right	0.0	left	0.117383003235	2016_Apr_21_1606	59.9297583837	Gestalt_exp1	1	11755		09
1091		Gestalt-scrambled	images/i26.bmp	images/k26.bmp					0.0	40.0	40.0	25.0							right	1.0	right	0.333802938461	2016_Apr_21_1606	59.9297583837	Gestalt_exp1	1	11755		26
1092		Inverted-Gestalt	images/k04.bmp	images/INVk04.bmp					0.0	41.0	41.0	55.0							left	0.0	right	0.26685500145	2016_Apr_21_1606	59.9297583837	Gestalt_exp1	1	11755		04
1093		Inverted-Gestalt	images/k24.bmp	images/INVk24.bmp					0.0	42.0	42.0	69.0							right	0.0	left	0.0160820484161	2016_Apr_21_1606	59.9297583837	Gestalt_exp1	1	11755		24
1094		Gestalt-scrambled	images/i15.bmp	images/k15.bmp					0.0	43.0	43.0	14.0							right	0.0	left	2.76681184769	2016_Apr_21_1606	59.9297583837	Gestalt_exp1	1	11755		15
1095		Inverted-scrambled	images/i26.bmp	images/INVk26.bmp					0.0	44.0	44.0	48.0							right	0.0	left	0.0834398269653	2016_Apr_21_1606	59.9297583837	Gestalt_exp1	1	11755		26
1096		Inverted-scrambled	images/i15.bmp	images/INVk15.bmp					0.0	45.0	45.0	39.0							right	0.0	left	0.234205961227	2016_Apr_21_1606	59.9297583837	Gestalt_exp1	1	11755		15
1097		Inverted-scrambled	images/i22.bmp	images/INVk22.bmp					0.0	46.0	46.0	44.0							left	0.0	right	0.267205953598	2016_Apr_21_1606	59.9297583837	Gestalt_exp1	1	11755		22
1098		Inverted-scrambled	images/i02.bmp	images/INVk03.bmp					0.0	47.0	47.0	31.0							right	0.0	left	0.01682305336	2016_Apr_21_1606	59.9297583837	Gestalt_exp1	1	11755		03
1099		Inverted-scrambled	images/i16.bmp	images/INVk16.bmp					0.0	48.0	48.0	40.0							right	1.0	right	6.86662006378	2016_Apr_21_1606	59.9297583837	Gestalt_exp1	1	11755		16
1100		Inverted-Gestalt	images/k29.bmp	images/INVk29.bmp					0.0	49.0	49.0	74.0							right	1.0	right	0.266631126404	2016_Apr_21_1606	59.9297583837	Gestalt_exp1	1	11755		29
1101		Gestalt-scrambled	images/i27.bmp	images/k27.bmp					0.0	50.0	50.0	26.0							left	0.0	right	0.31741309166	2016_Apr_21_1606	59.9297583837	Gestalt_exp1	1	11755		27
1102		Inverted-Gestalt	images/k27.bmp	images/INVk27.bmp					0.0	51.0	51.0	72.0							right	1.0	right	0.416872024536	2016_Apr_21_1606	59.9297583837	Gestalt_exp1	1	11755		27
1103		Inverted-scrambled	images/i19.bmp	images/INVk19.bmp					0.0	52.0	52.0	42.0							right	1.0	right	0.366678953171	2016_Apr_21_1606	59.9297583837	Gestalt_exp1	1	11755		19
1104		Inverted-scrambled	images/i14.bmp	images/INVk14.bmp					0.0	53.0	53.0	38.0							right	1.0	right	0.317398071289	2016_Apr_21_1606	59.9297583837	Gestalt_exp1	1	11755		14
1105		Gestalt-scrambled	images/i29.bmp	images/k29.bmp					0.0	54.0	54.0	28.0							right	1.0	right	0.416934967041	2016_Apr_21_1606	59.9297583837	Gestalt_exp1	1	11755		29
1106		Gestalt-scrambled	images/i14.bmp	images/k14.bmp					0.0	55.0	55.0	13.0							right	1.0	right	1.18352413177	2016_Apr_21_1606	59.9297583837	Gestalt_exp1	1	11755		14
1107		Gestalt-scrambled	images/i24.bmp	images/k24.bmp					0.0	56.0	56.0	23.0							left	1.0	left	0.299668073654	2016_Apr_21_1606	59.9297583837	Gestalt_exp1	1	11755		24
1108		Gestalt-scrambled	images/i05.bmp	images/k05.bmp					0.0	57.0	57.0	4.0							right	1.0	right	0.583446979523	2016_Apr_21_1606	59.9297583837	Gestalt_exp1	1	11755		05
1109		Gestalt-scrambled	images/i21.bmp	images/k21.bmp					0.0	58.0	58.0	20.0							left	0.0	right	0.350367069244	2016_Apr_21_1606	59.9297583837	Gestalt_exp1	1	11755		21
1110		Gestalt-scrambled	images/i30.bmp	images/k30.bmp					0.0	59.0	59.0	29.0							left	0.0	right	0.566924095154	2016_Apr_21_1606	59.9297583837	Gestalt_exp1	1	11755		30
1111		Inverted-Gestalt	images/k18.bmp	images/INVk18.bmp					0.0	60.0	60.0	64.0							right	1.0	right	0.316831111908	2016_Apr_21_1606	59.9297583837	Gestalt_exp1	1	11755		18
1112		Gestalt-scrambled	images/i12.bmp	images/k12.bmp					0.0	61.0	61.0	11.0							right	1.0	right	0.317384004593	2016_Apr_21_1606	59.9297583837	Gestalt_exp1	1	11755		12
1113		Inverted-scrambled	images/i21.bmp	images/INVk21.bmp					0.0	62.0	62.0	43.0							right	1.0	right	0.200227975845	2016_Apr_21_1606	59.9297583837	Gestalt_exp1	1	11755		21
1114		Gestalt-scrambled	images/i25.bmp	images/k25.bmp					0.0	63.0	63.0	24.0							left	0.0	right	0.333509922028	2016_Apr_21_1606	59.9297583837	Gestalt_exp1	1	11755		25
1115		Inverted-Gestalt	images/k25.bmp	images/INVk25.bmp					0.0	64.0	64.0	70.0							right	0.0	left	0.233539104462	2016_Apr_21_1606	59.9297583837	Gestalt_exp1	1	11755		25
1116		Inverted-Gestalt	images/k10.bmp	images/INVk10.bmp					0.0	65.0	65.0	59.0							left	0.0	right	0.349897861481	2016_Apr_21_1606	59.9297583837	Gestalt_exp1	1	11755		10
1117		Inverted-scrambled	images/i01.bmp	images/INVk01.bmp					0.0	66.0	66.0	30.0							right	0.0	left	0.066642999649	2016_Apr_21_1606	59.9297583837	Gestalt_exp1	1	11755		01
1118		Gestalt-scrambled	images/i13.bmp	images/k13.bmp					0.0	67.0	67.0	12.0							left	1.0	left	0.400134086609	2016_Apr_21_1606	59.9297583837	Gestalt_exp1	1	11755		13
1119		Inverted-scrambled	images/i04.bmp	images/INVk04.bmp					0.0	68.0	68.0	32.0							right	0.0	left	0.249470949173	2016_Apr_21_1606	59.9297583837	Gestalt_exp1	1	11755		04
1120		Gestalt-scrambled	images/i10.bmp	images/k10.bmp					0.0	69.0	69.0	9.0							right	1.0	right	2.8499519825	2016_Apr_21_1606	59.9297583837	Gestalt_exp1	1	11755		10
1121		Inverted-scrambled	images/i05.bmp	images/INVk05.bmp					0.0	70.0	70.0	33.0							left	0.0	right	0.300358057022	2016_Apr_21_1606	59.9297583837	Gestalt_exp1	1	11755		05
1122		Inverted-Gestalt	images/k14.bmp	images/INVk14.bmp					0.0	71.0	71.0	61.0							left	1.0	left	0.449461936951	2016_Apr_21_1606	59.9297583837	Gestalt_exp1	1	11755		14
1123		Gestalt-scrambled	images/i08.bmp	images/k08.bmp					0.0	72.0	72.0	7.0							right	1.0	right	0.433300018311	2016_Apr_21_1606	59.9297583837	Gestalt_exp1	1	11755		08
1124		Inverted-Gestalt	images/k28.bmp	images/INVk28.bmp					0.0	73.0	73.0	73.0							left	0.0	right	0.350370883942	2016_Apr_21_1606	59.9297583837	Gestalt_exp1	1	11755		28
1125		Inverted-Gestalt	images/k23.bmp	images/INVk23.bmp					0.0	74.0	74.0	68.0							right	1.0	right	0.0676529407501	2016_Apr_21_1606	59.9297583837	Gestalt_exp1	1	11755		23
1126		Gestalt-scrambled	images/i18.bmp	images/k18.bmp					0.0	75.0	75.0	17.0							left	0.0	right	0.0169398784637	2016_Apr_21_1606	59.9297583837	Gestalt_exp1	1	11755		18
1212		Gestalt-scrambled	images/i07.bmp	images/k07.bmp					0.0	0.0	0.0	6.0							right	1.0	right	4.96678090096	2016_Sep_26_1705	59.9161463311	Gestalt_exp1	1	11758		07
1213		Inverted-Gestalt	images/k30.bmp	images/INVk30.bmp					0.0	1.0	1.0	75.0							left	1.0	left	2.28344297409	2016_Sep_26_1705	59.9161463311	Gestalt_exp1	1	11758		30
1214		Gestalt-scrambled	images/i13.bmp	images/k13.bmp					0.0	2.0	2.0	12.0							right	0.0	left	0.834039926529	2016_Sep_26_1705	59.9161463311	Gestalt_exp1	1	11758		13
1215		Inverted-scrambled	images/i15.bmp	images/INVk15.bmp					0.0	3.0	3.0	39.0							right	0.0	left	0.767590045929	2016_Sep_26_1705	59.9161463311	Gestalt_exp1	1	11758		15
1216		Inverted-scrambled	images/i28.bmp	images/INVk28.bmp					0.0	4.0	4.0	50.0							left	0.0	right	0.350462913513	2016_Sep_26_1705	59.9161463311	Gestalt_exp1	1	11758		28
1217		Gestalt-scrambled	images/i20.bmp	images/k20.bmp					0.0	5.0	5.0	19.0							right	1.0	right	0.45026922226	2016_Sep_26_1705	59.9161463311	Gestalt_exp1	1	11758		20
1218		Gestalt-scrambled	images/i17.bmp	images/k17.bmp					0.0	6.0	6.0	16.0							left	0.0	right	0.616059064865	2016_Sep_26_1705	59.9161463311	Gestalt_exp1	1	11758		17
1219		Gestalt-scrambled	images/i01.bmp	images/k01.bmp					0.0	7.0	7.0	0.0							left	0.0	right	0.63352394104	2016_Sep_26_1705	59.9161463311	Gestalt_exp1	1	11758		01
1220		Inverted-Gestalt	images/k12.bmp	images/INVk12.bmp					0.0	8.0	8.0	60.0							right	0.0	left	0.76765704155	2016_Sep_26_1705	59.9161463311	Gestalt_exp1	1	11758		12
1221		Inverted-Gestalt	images/k14.bmp	images/INVk14.bmp					0.0	9.0	9.0	61.0							right	0.0	left	0.433558940887	2016_Sep_26_1705	59.9161463311	Gestalt_exp1	1	11758		14
1222		Inverted-Gestalt	images/k21.bmp	images/INVk21.bmp					0.0	10.0	10.0	66.0							left	0.0	right	0.350042819977	2016_Sep_26_1705	59.9161463311	Gestalt_exp1	1	11758		21
1223		Gestalt-scrambled	images/i04.bmp	images/k04.bmp					0.0	11.0	11.0	3.0							right	0.0	left	0.783746957779	2016_Sep_26_1705	59.9161463311	Gestalt_exp1	1	11758		04
1224		Inverted-Gestalt	images/k18.bmp	images/INVk18.bmp					0.0	12.0	12.0	64.0							right	1.0	right	0.533246994019	2016_Sep_26_1705	59.9161463311	Gestalt_exp1	1	11758		18
1225		Inverted-Gestalt	images/k05.bmp	images/INVk05.bmp					0.0	13.0	13.0	56.0							left	1.0	left	0.251137971878	2016_Sep_26_1705	59.9161463311	Gestalt_exp1	1	11758		05
1226		Gestalt-scrambled	images/i10.bmp	images/k10.bmp					0.0	14.0	14.0	9.0							right	0.0	left	0.616920948029	2016_Sep_26_1705	59.9161463311	Gestalt_exp1	1	11758		10
1227		Inverted-scrambled	images/i24.bmp	images/INVk24.bmp					0.0	15.0	15.0	46.0							right	1.0	right	0.283510923386	2016_Sep_26_1705	59.9161463311	Gestalt_exp1	1	11758		24
1228		Inverted-scrambled	images/i23.bmp	images/INVk23.bmp					0.0	16.0	16.0	45.0							left	1.0	left	0.316097974777	2016_Sep_26_1705	59.9161463311	Gestalt_exp1	1	11758		23
1229		Inverted-scrambled	images/i05.bmp	images/INVk05.bmp					0.0	17.0	17.0	33.0							right	0.0	left	0.10017991066	2016_Sep_26_1705	59.9161463311	Gestalt_exp1	1	11758		05
1230		Inverted-scrambled	images/i26.bmp	images/INVk26.bmp					0.0	18.0	18.0	48.0							left	0.0	right	0.53328204155	2016_Sep_26_1705	59.9161463311	Gestalt_exp1	1	11758		26
1231		Inverted-scrambled	images/i06.bmp	images/INVk06.bmp					0.0	19.0	19.0	34.0							right	0.0	left	0.116856813431	2016_Sep_26_1705	59.9161463311	Gestalt_exp1	1	11758		06
1232		Gestalt-scrambled	images/i11.bmp	images/k11.bmp					0.0	20.0	20.0	10.0							left	1.0	left	0.599807977676	2016_Sep_26_1705	59.9161463311	Gestalt_exp1	1	11758		11
1233		Inverted-scrambled	images/i16.bmp	images/INVk16.bmp					0.0	21.0	21.0	40.0							right	0.0	left	0.150424957275	2016_Sep_26_1705	59.9161463311	Gestalt_exp1	1	11758		16
1234		Gestalt-scrambled	images/i23.bmp	images/k23.bmp					0.0	22.0	22.0	22.0							right	0.0	left	0.484272003174	2016_Sep_26_1705	59.9161463311	Gestalt_exp1	1	11758		23
1235		Inverted-scrambled	images/i27.bmp	images/INVk27.bmp					0.0	23.0	23.0	49.0							right	1.0	right	0.183552026749	2016_Sep_26_1705	59.9161463311	Gestalt_exp1	1	11758		27
1236		Inverted-scrambled	images/i19.bmp	images/INVk19.bmp					0.0	24.0	24.0	42.0							right	0.0	left	0.333811044693	2016_Sep_26_1705	59.9161463311	Gestalt_exp1	1	11758		19
1237		Inverted-Gestalt	images/k09.bmp	images/INVk09.bmp					0.0	25.0	25.0	58.0							right	0.0	left	0.133456945419	2016_Sep_26_1705	59.9161463311	Gestalt_exp1	1	11758		09
1238		Gestalt-scrambled	images/i25.bmp	images/k25.bmp					0.0	26.0	26.0	24.0							right	0.0	left	0.183286190033	2016_Sep_26_1705	59.9161463311	Gestalt_exp1	1	11758		25
1239		Gestalt-scrambled	images/i22.bmp	images/k22.bmp					0.0	27.0	27.0	21.0							right	0.0	left	0.14942407608	2016_Sep_26_1705	59.9161463311	Gestalt_exp1	1	11758		22
1240		Inverted-scrambled	images/i12.bmp	images/INVk12.bmp					0.0	28.0	28.0	37.0							right	0.0	left	0.400168180466	2016_Sep_26_1705	59.9161463311	Gestalt_exp1	1	11758		12
1241		Inverted-scrambled	images/i22.bmp	images/INVk22.bmp					0.0	29.0	29.0	44.0							right	1.0	right	0.450393915176	2016_Sep_26_1705	59.9161463311	Gestalt_exp1	1	11758		22
1242		Gestalt-scrambled	images/i02.bmp	images/k02.bmp					0.0	30.0	30.0	1.0							left	0.0	right	0.549376964569	2016_Sep_26_1705	59.9161463311	Gestalt_exp1	1	11758		02
1243		Inverted-Gestalt	images/k26.bmp	images/INVk26.bmp					0.0	31.0	31.0	71.0							right	1.0	right	0.116858959198	2016_Sep_26_1705	59.9161463311	Gestalt_exp1	1	11758		26
1244		Inverted-Gestalt	images/k22.bmp	images/INVk22.bmp					0.0	32.0	32.0	67.0							left	1.0	left	0.467033863068	2016_Sep_26_1705	59.9161463311	Gestalt_exp1	1	11758		22
1245		Inverted-scrambled	images/i09.bmp	images/INVk09.bmp					0.0	33.0	33.0	35.0							right	0.0	left	0.316787958145	2016_Sep_26_1705	59.9161463311	Gestalt_exp1	1	11758		09
1246		Gestalt-scrambled	images/i21.bmp	images/k21.bmp					0.0	34.0	34.0	20.0							right	0.0	left	0.38358092308	2016_Sep_26_1705	59.9161463311	Gestalt_exp1	1	11758		21
1247		Gestalt-scrambled	images/i26.bmp	images/k26.bmp					0.0	35.0	35.0	25.0							left	0.0	right	0.516637086868	2016_Sep_26_1705	59.9161463311	Gestalt_exp1	1	11758		26
1248		Gestalt-scrambled	images/i09.bmp	images/k09.bmp					0.0	36.0	36.0	8.0							left	0.0	right	0.433737039566	2016_Sep_26_1705	59.9161463311	Gestalt_exp1	1	11758		09
1249		Gestalt-scrambled	images/i03.bmp	images/k03.bmp					0.0	37.0	37.0	2.0							left	1.0	left	0.6334400177	2016_Sep_26_1705	59.9161463311	Gestalt_exp1	1	11758		03
1250		Inverted-Gestalt	images/k10.bmp	images/INVk10.bmp					0.0	38.0	38.0	59.0							right	0.0	left	0.133282899857	2016_Sep_26_1705	59.9161463311	Gestalt_exp1	1	11758		10
1251		Inverted-scrambled	images/i04.bmp	images/INVk04.bmp					0.0	39.0	39.0	32.0							right	1.0	right	0.233746051788	2016_Sep_26_1705	59.9161463311	Gestalt_exp1	1	11758		04
1252		Inverted-Gestalt	images/k25.bmp	images/INVk25.bmp					0.0	40.0	40.0	70.0							right	0.0	left	0.116806983948	2016_Sep_26_1705	59.9161463311	Gestalt_exp1	1	11758		25
1253		Gestalt-scrambled	images/i05.bmp	images/k05.bmp					0.0	41.0	41.0	4.0							left	0.0	right	0.0666480064392	2016_Sep_26_1705	59.9161463311	Gestalt_exp1	1	11758		05
1254		Gestalt-scrambled	images/i15.bmp	images/k15.bmp					0.0	42.0	42.0	14.0							left	0.0	right	0.566838026047	2016_Sep_26_1705	59.9161463311	Gestalt_exp1	1	11758		15
1255		Inverted-scrambled	images/i18.bmp	images/INVk18.bmp					0.0	43.0	43.0	41.0							left	1.0	left	0.550287008286	2016_Sep_26_1705	59.9161463311	Gestalt_exp1	1	11758		18
1256		Inverted-scrambled	images/i02.bmp	images/INVk03.bmp					0.0	44.0	44.0	31.0							right	0.0	left	0.21706199646	2016_Sep_26_1705	59.9161463311	Gestalt_exp1	1	11758		03
1257		Gestalt-scrambled	images/i30.bmp	images/k30.bmp					0.0	45.0	45.0	29.0							right	0.0	left	0.482967853546	2016_Sep_26_1705	59.9161463311	Gestalt_exp1	1	11758		30
1258		Gestalt-scrambled	images/i29.bmp	images/k29.bmp					0.0	46.0	46.0	28.0							left	1.0	left	0.467064142227	2016_Sep_26_1705	59.9161463311	Gestalt_exp1	1	11758		29
1259		Gestalt-scrambled	images/i27.bmp	images/k27.bmp					0.0	47.0	47.0	26.0							right	0.0	left	0.067156791687	2016_Sep_26_1705	59.9161463311	Gestalt_exp1	1	11758		27
1260		Inverted-Gestalt	images/k15.bmp	images/INVk15.bmp					0.0	48.0	48.0	62.0							right	1.0	right	0.267086029053	2016_Sep_26_1705	59.9161463311	Gestalt_exp1	1	11758		15
1261		Inverted-Gestalt	images/k01.bmp	images/INVk01.bmp					0.0	49.0	49.0	53.0							right	0.0	left	0.0836899280548	2016_Sep_26_1705	59.9161463311	Gestalt_exp1	1	11758		01
1262		Gestalt-scrambled	images/i28.bmp	images/k28.bmp					0.0	50.0	50.0	27.0							right	0.0	left	0.433771133423	2016_Sep_26_1705	59.9161463311	Gestalt_exp1	1	11758		28
1263		Inverted-scrambled	images/i25.bmp	images/INVk25.bmp					0.0	51.0	51.0	47.0							left	0.0	right	0.600731134415	2016_Sep_26_1705	59.9161463311	Gestalt_exp1	1	11758		25
1264		Inverted-scrambled	images/i01.bmp	images/INVk01.bmp					0.0	52.0	52.0	30.0							left	0.0	right	0.40021109581	2016_Sep_26_1705	59.9161463311	Gestalt_exp1	1	11758		01
1265		Inverted-Gestalt	images/k16.bmp	images/INVk16.bmp					0.0	53.0	53.0	63.0							right	1.0	right	0.500272989273	2016_Sep_26_1705	59.9161463311	Gestalt_exp1	1	11758		16
1266		Inverted-scrambled	images/i29.bmp	images/INVk29.bmp					0.0	54.0	54.0	51.0							right	0.0	left	0.166656970978	2016_Sep_26_1705	59.9161463311	Gestalt_exp1	1	11758		29
1267		Inverted-Gestalt	images/k29.bmp	images/INVk29.bmp					0.0	55.0	55.0	74.0							right	0.0	left	0.36612200737	2016_Sep_26_1705	59.9161463311	Gestalt_exp1	1	11758		29
1268		Gestalt-scrambled	images/i12.bmp	images/k12.bmp					0.0	56.0	56.0	11.0							right	1.0	right	0.0494649410248	2016_Sep_26_1705	59.9161463311	Gestalt_exp1	1	11758		12
